File: DSC/PLA-4-30-brabender.txt
ClaudiaOlga_DSC_GR39                                            23.01.2023 11:12
________________________________________________________________________________

Curve Name:
  ClaudiaOlga_DSC_GR39, 23.01.2023 11:10:36
  Performed 23.01.2023 11:10:36
Curve Values:
          Index              t             Ts          Value
                           [s]           [°C]           [mW]
              0              0        -79,996       0,758476
              4              4        -78,660         1,2324
              8              8        -77,338      -0,874692
             12             12        -76,019       -3,14384
             16             16        -74,693        -4,3936
             20             20        -73,365       -5,05043
             24             24        -72,035       -5,39852
             28             28        -70,704       -5,59074
             32             32        -69,372       -5,69276
             36             36        -68,040       -5,73806
             40             40        -66,708       -5,75213
             44             44        -65,375       -5,73922
             48             48        -64,043       -5,70212
             52             52        -62,710       -5,66225
             56             56        -61,377       -5,61445
             60             60        -60,045       -5,56444
             64             64        -58,712       -5,51557
             68             68        -57,379       -5,46641
             72             72        -56,047       -5,41858
             76             76        -54,714       -5,36781
             80             80        -53,381       -5,31994
             84             84        -52,048        -5,2771
             88             88        -50,716        -5,2344
             92             92        -49,383       -5,19318
             96             96        -48,050       -5,15817
            100            100        -46,718       -5,12293
            104            104        -45,385       -5,08903
            108            108        -44,052       -5,05685
            112            112        -42,720        -5,0279
            116            116        -41,387       -5,00219
            120            120        -40,054       -4,97673
            124            124        -38,722       -4,95203
            128            128        -37,389       -4,93083
            132            132        -36,057       -4,91327
            136            136        -34,724       -4,89441
            140            140        -33,392       -4,87467
            144            144        -32,059       -4,85623
            148            148        -30,726       -4,83182
            152            152        -29,394       -4,81187
            156            156        -28,061       -4,79654
            160            160        -26,729       -4,78231
            164            164        -25,396       -4,76902
            168            168        -24,064       -4,75607
            172            172        -22,731       -4,74538
            176            176        -21,399       -4,73728
            180            180        -20,066       -4,72875
            184            184        -18,734       -4,72015
            188            188        -17,402       -4,71437
            192            192        -16,069       -4,70995
            196            196        -14,737       -4,70311
            200            200        -13,404       -4,69564
            204            204        -12,072       -4,68976
            208            208        -10,740       -4,68484
            212            212         -9,407       -4,67946
            216            216         -8,075       -4,67136
            220            220         -6,742       -4,66197
            224            224         -5,410        -4,6529
            228            228         -4,077         -4,643
            232            232         -2,745       -4,63181
            236            236         -1,412       -4,61903
            240            240    -79,957e-03       -4,60615
            244            244          1,253       -4,59534
            248            248          2,585       -4,58519
            252            252          3,918       -4,57577
            256            256          5,250       -4,56729
            260            260          6,582       -4,56039
            264            264          7,915       -4,55576
            268            268          9,247       -4,55227
            272            272         10,579       -4,55308
            276            276         11,912       -4,55245
            280            280         13,244        -4,5552
            284            284         14,576       -4,56041
            288            288         15,908       -4,56816
            292            292         17,241       -4,58092
            296            296         18,573       -4,59512
            300            300         19,904       -4,61204
            304            304         21,236       -4,63025
            308            308         22,568        -4,6528
            312            312         23,900       -4,67984
            316            316         25,232       -4,70878
            320            320         26,563       -4,73995
            324            324         27,895       -4,77584
            328            328         29,226       -4,81449
            332            332         30,557       -4,86031
            336            336         31,888       -4,90999
            340            340         33,219       -4,97037
            344            344         34,550       -5,03713
            348            348         35,880       -5,11448
            352            352         37,210       -5,20324
            356            356         38,540       -5,30448
            360            360         39,870       -5,41478
            364            364         41,199       -5,52346
            368            368         42,529        -5,6138
            372            372         43,859       -5,68822
            376            376         45,190       -5,75233
            380            380         46,520       -5,81209
            384            384         47,851       -5,85787
            388            388         49,183       -5,87192
            392            392         50,515       -5,85393
            396            396         51,848       -5,82387
            400            400         53,181       -5,80818
            404            404         54,513        -5,7977
            408            408         55,845       -5,78086
            412            412         57,178       -5,75243
            416            416         58,512       -5,70507
            420            420         59,845       -5,65549
            424            424         61,178       -5,60804
            428            428         62,512       -5,56556
            432            432         63,845       -5,52503
            436            436         65,178       -5,48298
            440            440         66,511        -5,4371
            444            444         67,845       -5,38042
            448            448         69,179        -5,3017
            452            452         70,515       -5,18792
            456            456         71,852       -5,01833
            460            460         73,191       -4,79708
            464            464         74,529       -4,61071
            468            468         75,864       -4,51385
            472            472         77,197       -4,46934
            476            476         78,530       -4,46304
            480            480         79,862        -4,4767
            484            484         81,194       -4,48023
            488            488         82,527       -4,46527
            492            492         83,860       -4,45237
            496            496         85,192       -4,45349
            500            500         86,524       -4,46612
            504            504         87,855        -4,4938
            508            508         89,186       -4,53593
            512            512         90,517       -4,58014
            516            516         91,848       -4,62199
            520            520         93,179       -4,65857
            524            524         94,511       -4,69031
            528            528         95,842       -4,71438
            532            532         97,174       -4,73432
            536            536         98,505       -4,74869
            540            540         99,837        -4,7601
            544            544        101,169       -4,76808
            548            548        102,502       -4,77104
            552            552        103,834       -4,76886
            556            556        105,167       -4,76118
            560            560        106,499       -4,74817
            564            564        107,832       -4,73162
            568            568        109,165       -4,71159
            572            572        110,498       -4,68773
            576            576        111,832       -4,66291
            580            580        113,165       -4,63828
            584            584        114,498       -4,61579
            588            588        115,831       -4,59749
            592            592        117,164       -4,58892
            596            596        118,496       -4,59015
            600            600        119,828       -4,60366
            604            604        121,159       -4,63122
            608            608        122,490       -4,67405
            612            612        123,820       -4,72732
            616            616        125,150       -4,79195
            620            620        126,480       -4,86938
            624            624        127,808        -4,9627
            628            628        129,136       -5,07792
            632            632        130,463       -5,21251
            636            636        131,790       -5,35287
            640            640        133,117       -5,49807
            644            644        134,442       -5,66036
            648            648        135,767       -5,84684
            652            652        137,090       -6,06937
            656            656        138,412       -6,33936
            660            660        139,730       -6,67668
            664            664        141,048         -7,031
            668            668        142,367       -7,34273
            672            672        143,687       -7,62528
            676            676        145,007       -7,90634
            680            680        146,327         -8,203
            684            684        147,647       -8,48611
            688            688        148,970       -8,67336
            692            692        150,305       -8,60462
            696            696        151,656        -8,1389
            700            700        153,023       -7,31952
            704            704        154,390       -6,50068
            708            708        155,745        -5,9439
            712            712        157,091        -5,6296
            716            716        158,431        -5,4599
            720            720        159,767       -5,36724
            724            724        161,102        -5,3138
            728            728        162,435       -5,28082
            732            732        163,769       -5,26022
            736            736        165,102       -5,24497
            740            740        166,435       -5,23234
            744            744        167,767       -5,22161
            748            748        169,100       -5,21237
            752            752        170,433       -5,20572
            756            756        171,765       -5,20023
            760            760        173,098       -5,19496
            764            764        174,431       -5,18968
            768            768        175,763       -5,18501
            772            772        177,096       -5,18096
            776            776        178,428       -5,17657
            780            780        179,761       -5,17181
            784            784        181,093       -5,16731
            788            788        182,426       -5,16329
            792            792        183,758       -5,16036
            796            796        185,091       -5,15947
            800            800        186,423       -5,15906
            804            804        187,756       -5,15846
            808            808        189,088       -5,15867
            812            812        190,421        -5,1592
            816            816        191,753       -5,15997
            820            820        193,085       -5,16151
            824            824        194,418       -5,16277
            828            828        195,750       -5,16389
            832            832        197,082       -5,16497
            836            836        198,415       -5,16554
            840            840        199,727       -5,57684
            844            844        198,477       -3,87923
            848            848        197,341       0,155537
            852            852        196,153        3,15139
            856            856        194,900         4,8429
            860            860        193,609        5,72891
            864            864        192,296        6,18191
            868            868        190,973         6,4107
            872            872        189,643        6,52256
            876            876        188,311        6,57648
            880            880        186,978        6,59986
            884            884        185,644        6,60458
            888            888        184,309        6,60125
            892            892        182,974        6,59235
            896            896        181,639        6,58182
            900            900        180,304        6,57022
            904            904        178,969         6,5582
            908            908        177,634        6,54565
            912            912        176,298        6,53195
            916            916        174,963        6,51747
            920            920        173,628        6,50272
            924            924        172,293        6,48776
            928            928        170,958        6,47308
            932            932        169,622        6,45661
            936            936        168,287        6,43668
            940            940        166,951        6,41886
            944            944        165,616        6,40123
            948            948        164,281        6,38126
            952            952        162,945        6,36036
            956            956        161,610        6,33949
            960            960        160,274        6,31806
            964            964        158,939        6,29848
            968            968        157,604        6,28222
            972            972        156,268        6,26787
            976            976        154,933        6,25488
            980            980        153,598        6,24298
            984            984        152,263        6,23175
            988            988        150,928        6,22199
            992            992        149,593        6,21725
            996            996        148,259        6,22375
           1000           1000        146,925        6,23912
           1004           1004        145,592        6,26138
           1008           1008        144,258         6,2844
           1012           1012        142,924        6,30433
           1016           1016        141,590        6,31789
           1020           1020        140,256        6,32292
           1024           1024        138,921         6,3237
           1028           1028        137,586        6,32124
           1032           1032        136,252        6,31781
           1036           1036        134,917        6,31502
           1040           1040        133,582        6,31189
           1044           1044        132,247        6,30829
           1048           1048        130,913        6,30349
           1052           1052        129,578        6,29827
           1056           1056        128,243        6,29277
           1060           1060        126,908        6,28776
           1064           1064        125,573        6,28181
           1068           1068        124,238        6,27501
           1072           1072        122,903        6,26572
           1076           1076        121,568        6,25031
           1080           1080        120,233        6,22891
           1084           1084        118,897        6,20672
           1088           1088        117,562        6,18802
           1092           1092        116,227        6,17782
           1096           1096        114,892        6,17904
           1100           1100        113,558        6,18485
           1104           1104        112,224            6,2
           1108           1108        110,890        6,21539
           1112           1112        109,556        6,22891
           1116           1116        108,221        6,23776
           1120           1120        106,887        6,24563
           1124           1124        105,552        6,25088
           1128           1128        104,217        6,24718
           1132           1132        102,882        6,23109
           1136           1136        101,547        6,20174
           1140           1140        100,211        6,17145
           1144           1144         98,875        6,14147
           1148           1148         97,540        6,12667
           1152           1152         96,205        6,13152
           1156           1156         94,871        6,14717
           1160           1160         93,537         6,1669
           1164           1164         92,203        6,18832
           1168           1168         90,869        6,20746
           1172           1172         89,535        6,22236
           1176           1176         88,201        6,23155
           1180           1180         86,866        6,23724
           1184           1184         85,531        6,24043
           1188           1188         84,197        6,24203
           1192           1192         82,862        6,24272
           1196           1196         81,527        6,24348
           1200           1200         80,193        6,24592
           1204           1204         78,858        6,25006
           1208           1208         77,523        6,25443
           1212           1212         76,189        6,25872
           1216           1216         74,854         6,2623
           1220           1220         73,519        6,26509
           1224           1224         72,185        6,26705
           1228           1228         70,850        6,26925
           1232           1232         69,515        6,27236
           1236           1236         68,181        6,27703
           1240           1240         66,846        6,28199
           1244           1244         65,511        6,28715
           1248           1248         64,177        6,29323
           1252           1252         62,842        6,29935
           1256           1256         61,508        6,30391
           1260           1260         60,173        6,30725
           1264           1264         58,838        6,30987
           1268           1268         57,504        6,31243
           1272           1272         56,169        6,31418
           1276           1276         54,834        6,31631
           1280           1280         53,499        6,31903
           1284           1284         52,165        6,32199
           1288           1288         50,830        6,32512
           1292           1292         49,495        6,32823
           1296           1296         48,161        6,33119
           1300           1300         46,826        6,33461
           1304           1304         45,491        6,33803
           1308           1308         44,157        6,33971
           1312           1312         42,822        6,33934
           1316           1316         41,487        6,33715
           1320           1320         40,152         6,3333
           1324           1324         38,817        6,32716
           1328           1328         37,482        6,31358
           1332           1332         36,147         6,3022
           1336           1336         34,812         6,2826
           1340           1340         33,477        6,25422
           1344           1344         32,141        6,21706
           1348           1348         30,805         6,1698
           1352           1352         29,470        6,11559
           1356           1356         28,133        6,05416
           1360           1360         26,797        5,98711
           1364           1364         25,461        5,91692
           1368           1368         24,125        5,84304
           1372           1372         22,789        5,76724
           1376           1376         21,453        5,69378
           1380           1380         20,116        5,62248
           1384           1384         18,780        5,55661
           1388           1388         17,445        5,49678
           1392           1392         16,109        5,44519
           1396           1396         14,774        5,39263
           1400           1400         13,438        5,34472
           1404           1404         12,103        5,30031
           1408           1408         10,767         5,2573
           1412           1412          9,432        5,23602
           1416           1416          8,097        5,20767
           1420           1420          6,762        5,17878
           1424           1424          5,428        5,16955
           1428           1428          4,093        5,13925
           1432           1432          2,758        5,11871
           1436           1436          1,423        5,10311
           1440           1440     88,398e-03         5,0924
           1444           1444         -1,246        5,08737
           1448           1448         -2,581        5,07799
           1452           1452         -3,915        5,07143
           1456           1456         -5,250        5,06795
           1460           1460         -6,584        5,06995
           1464           1464         -7,919        5,07225
           1468           1468         -9,253         5,0742
           1472           1472        -10,588        5,08007
           1476           1476        -11,922        5,08928
           1480           1480        -13,256        5,09509
           1484           1484        -14,591        5,09975
           1488           1488        -15,925        5,10238
           1492           1492        -17,259         5,1046
           1496           1496        -18,594        5,10777
           1500           1500        -19,928        5,11127
           1504           1504        -21,263          5,114
           1508           1508        -22,597        5,11627
           1512           1512        -23,931        5,12019
           1516           1516        -25,266        5,12562
           1520           1520        -26,600        5,12897
           1524           1524        -27,934        5,13383
           1528           1528        -29,269        5,13944
           1532           1532        -30,603        5,14603
           1536           1536        -31,937        5,15324
           1540           1540        -33,272        5,16013
           1544           1544        -34,606        5,17086
           1548           1548        -35,940        5,17995
           1552           1552        -37,275         5,1895
           1556           1556        -38,609        5,20077
           1560           1560        -39,943        5,21321
           1564           1564        -41,277        5,23219
           1568           1568        -42,611        5,24969
           1572           1572        -43,946        5,26158
           1576           1576        -45,280        5,27718
           1580           1580        -46,614         5,2911
           1584           1584        -47,948        5,31164
           1588           1588        -49,282        5,32767
           1592           1592        -50,617         5,3443
           1596           1596        -51,951        5,36375
           1600           1600        -53,285        5,38611
           1604           1604        -54,619        5,40466
           1608           1608        -55,953        5,42245
           1612           1612        -57,288        5,42988
           1616           1616        -58,622        5,43803
           1620           1620        -59,956        5,45047
           1624           1624        -61,290        5,46947
           1628           1628        -62,624        5,49578
           1632           1632        -63,959        5,51961
           1636           1636        -65,290        5,89822
           1640           1640        -66,625        5,80987
           1644           1644        -67,960        5,77021
           1648           1648        -69,294        5,74724
           1652           1652        -70,629        5,71403
           1656           1656        -71,963        5,67112
           1660           1660        -73,298        5,61726
           1664           1664        -74,633        5,54173
           1668           1668        -75,968        5,45857
           1672           1672        -77,302        5,39275
           1676           1676        -78,637        5,31832
           1680           1680        -79,971        5,27979
           1684           1684        -78,635        5,59648
           1688           1688        -77,320         2,3709
           1692           1692        -76,007       -1,21415
           1696           1696        -74,687       -3,30152
           1700           1700        -73,361       -4,44823
           1704           1704        -72,033       -5,07041
           1708           1708        -70,702       -5,41471
           1712           1712        -69,371       -5,57691
           1716           1716        -68,039       -5,64144
           1720           1720        -66,707       -5,66177
           1724           1724        -65,375       -5,64822
           1728           1728        -64,042       -5,61584
           1732           1732        -62,709       -5,56757
           1736           1736        -61,377       -5,51909
           1740           1740        -60,044       -5,46371
           1744           1744        -58,711       -5,40861
           1748           1748        -57,378       -5,35933
           1752           1752        -56,046       -5,30995
           1756           1756        -54,713       -5,26502
           1760           1760        -53,380       -5,21967
           1764           1764        -52,047       -5,17732
           1768           1768        -50,715       -5,13579
           1772           1772        -49,382       -5,09962
           1776           1776        -48,049       -5,07165
           1780           1780        -46,717       -5,04411
           1784           1784        -45,384       -5,01242
           1788           1788        -44,051       -4,98496
           1792           1792        -42,719       -4,95804
           1796           1796        -41,386       -4,93084
           1800           1800        -40,054       -4,90752
           1804           1804        -38,721       -4,88432
           1808           1808        -37,388       -4,86423
           1812           1812        -36,056       -4,84577
           1816           1816        -34,723       -4,82845
           1820           1820        -33,391       -4,81232
           1824           1824        -32,058       -4,79534
           1828           1828        -30,726       -4,77889
           1832           1832        -29,393       -4,76205
           1836           1836        -28,061       -4,74932
           1840           1840        -26,728       -4,73213
           1844           1844        -25,396       -4,71794
           1848           1848        -24,063       -4,70851
           1852           1852        -22,731       -4,70063
           1856           1856        -21,398       -4,69342
           1860           1860        -20,066       -4,68629
           1864           1864        -18,733       -4,67895
           1868           1868        -17,401        -4,6748
           1872           1872        -16,069       -4,66399
           1876           1876        -14,736       -4,65872
           1880           1880        -13,404       -4,65339
           1884           1884        -12,071       -4,64657
           1888           1888        -10,739       -4,63882
           1892           1892         -9,407       -4,63347
           1896           1896         -8,074       -4,62852
           1900           1900         -6,742       -4,62365
           1904           1904         -5,409       -4,61899
           1908           1908         -4,077       -4,61445
           1912           1912         -2,745       -4,60986
           1916           1916         -1,412        -4,6052
           1920           1920    -79,873e-03       -4,60126
           1924           1924          1,252       -4,59817
           1928           1928          2,585       -4,59605
           1932           1932          3,917       -4,59466
           1936           1936          5,249       -4,59625
           1940           1940          6,582       -4,59966
           1944           1944          7,914       -4,60452
           1948           1948          9,246       -4,61082
           1952           1952         10,578       -4,62111
           1956           1956         11,910       -4,63369
           1960           1960         13,242       -4,64896
           1964           1964         14,574       -4,66475
           1968           1968         15,906       -4,68306
           1972           1972         17,238       -4,70731
           1976           1976         18,570       -4,73606
           1980           1980         19,901       -4,76905
           1984           1984         21,233       -4,81009
           1988           1988         22,564       -4,85654
           1992           1992         23,895       -4,90958
           1996           1996         25,226       -4,96969
           2000           2000         26,557       -5,03798
           2004           2004         27,887       -5,11303
           2008           2008         29,218       -5,19206
           2012           2012         30,548       -5,27562
           2016           2016         31,878       -5,35925
           2020           2020         33,209         -5,441
           2024           2024         34,539       -5,51832
           2028           2028         35,869          -5,59
           2032           2032         37,200       -5,64785
           2036           2036         38,531        -5,6966
           2040           2040         39,862       -5,72881
           2044           2044         41,194       -5,74885
           2048           2048         42,526       -5,75539
           2052           2052         43,858       -5,74991
           2056           2056         45,190       -5,73855
           2060           2060         46,523       -5,72442
           2064           2064         47,855       -5,70894
           2068           2068         49,187       -5,69358
           2072           2072         50,520       -5,68065
           2076           2076         51,852       -5,66964
           2080           2080         53,185       -5,65884
           2084           2084         54,517        -5,6488
           2088           2088         55,849       -5,63956
           2092           2092         57,182       -5,63089
           2096           2096         58,514       -5,62373
           2100           2100         59,846       -5,61883
           2104           2104         61,178       -5,60882
           2108           2108         62,511       -5,59939
           2112           2112         63,843       -5,58985
           2116           2116         65,175       -5,57938
           2120           2120         66,508       -5,56831
           2124           2124         67,840       -5,55718
           2128           2128         69,172       -5,54465
           2132           2132         70,505       -5,52939
           2136           2136         71,838        -5,5109
           2140           2140         73,170       -5,48707
           2144           2144         74,503       -5,45617
           2148           2148         75,837        -5,4119
           2152           2152         77,171       -5,35104
           2156           2156         78,505       -5,27093
           2160           2160         79,841        -5,1602
           2164           2164         81,177       -5,02688
           2168           2168         82,514       -4,87438
           2172           2172         83,851       -4,71466
           2176           2176         85,189       -4,55438
           2180           2180         86,526       -4,39389
           2184           2184         87,864       -4,23223
           2188           2188         89,201       -4,07197
           2192           2192         90,539       -3,92402
           2196           2196         91,875       -3,79523
           2200           2200         93,211       -3,68739
           2204           2204         94,547       -3,60141
           2208           2208         95,881       -3,54163
           2212           2212         97,215       -3,51263
           2216           2216         98,547       -3,51534
           2220           2220         99,879       -3,54641
           2224           2224        101,210       -3,59459
           2228           2228        102,540       -3,65303
           2232           2232        103,871       -3,71813
           2236           2236        105,201       -3,78371
           2240           2240        106,531       -3,84938
           2244           2244        107,861       -3,91585
           2248           2248        109,191       -3,98497
           2252           2252        110,521       -4,05932
           2256           2256        111,851       -4,13989
           2260           2260        113,180       -4,22337
           2264           2264        114,509       -4,31062
           2268           2268        115,838       -4,40079
           2272           2272        117,167       -4,49175
           2276           2276        118,496       -4,58244
           2280           2280        119,825       -4,67336
           2284           2284        121,154       -4,76575
           2288           2288        122,483       -4,86045
           2292           2292        123,812       -4,96008
           2296           2296        125,140       -5,06611
           2300           2300        126,468       -5,17979
           2304           2304        127,795       -5,30789
           2308           2308        129,121       -5,46018
           2312           2312        130,446        -5,6538
           2316           2316        131,768         -5,917
           2320           2320        133,088       -6,22591
           2324           2324        134,408       -6,53722
           2328           2328        135,728       -6,83797
           2332           2332        137,048       -7,13779
           2336           2336        138,367       -7,45228
           2340           2340        139,684       -7,81622
           2344           2344        140,999       -8,23109
           2348           2348        142,313       -8,65803
           2352           2352        143,630       -9,01817
           2356           2356        144,953       -9,21996
           2360           2360        146,286       -9,19645
           2364           2364        147,631       -8,86427
           2368           2368        148,992       -8,15116
           2372           2372        150,367       -7,12888
           2376           2376        151,740       -6,16122
           2380           2380        153,095       -5,61827
           2384           2384        154,437       -5,37941
           2388           2388        155,774       -5,27607
           2392           2392        157,109       -5,22502
           2396           2396        158,442       -5,19926
           2400           2400        159,775       -5,18533
           2404           2404        161,108        -5,1756
           2408           2408        162,440       -5,16894
           2412           2412        163,773       -5,16347
           2416           2416        165,105        -5,1582
           2420           2420        166,438       -5,15311
           2424           2424        167,771       -5,14837
           2428           2428        169,103       -5,14408
           2432           2432        170,436       -5,14018
           2436           2436        171,768       -5,13696
           2440           2440        173,101       -5,13451
           2444           2444        174,433       -5,13247
           2448           2448        175,766       -5,12927
           2452           2452        177,098         -5,124
           2456           2456        178,431       -5,11993
           2460           2460        179,763         -5,118
           2464           2464        181,096       -5,11681
           2468           2468        182,428       -5,11568
           2472           2472        183,761       -5,11374
           2476           2476        185,093       -5,11146
           2480           2480        186,426       -5,10926
           2484           2484        187,758       -5,10671
           2488           2488        189,091       -5,10418
           2492           2492        190,423       -5,10287
           2496           2496        191,756       -5,10286
           2500           2500        193,088        -5,1035
           2504           2504        194,420       -5,10422
           2508           2508        195,753        -5,1049
           2512           2512        197,085       -5,10582
           2516           2516        198,417       -5,10717
           2520           2520        199,750       -5,10817

Results:
  Step	-0,14 Wg^-1
  	-1,15 mW
  Onset	31,53 °C
  Inflect. Pt.	39,54 °C
  Midpoint	37,52 °C
  Angle Midpoint	39,03 °C

  Integral	43,55 mJ
    normalized	5,38 Jg^-1
  Onset	69,94 °C
  Peak	77,20 °C

  Integral	-173,67 mJ
    normalized	-21,44 Jg^-1
  Onset	132,57 °C
  Peak	149,30 °C

  Step	-0,12 Wg^-1
  	-1,00 mW
  Onset	32,92 °C
  Inflect. Pt.	23,46 °C
  Midpoint	22,54 °C
  Angle Midpoint	25,78 °C

  Step	-0,14 Wg^-1
  	-1,12 mW
  Onset	20,47 °C
  Inflect. Pt.	30,55 °C
  Midpoint	28,97 °C
  Angle Midpoint	29,76 °C

  Integral	148,92 mJ
    normalized	18,38 Jg^-1
  Onset	78,13 °C
  Peak	97,21 °C

  Integral	-162,24 mJ
    normalized	-20,03 Jg^-1
  Onset	131,75 °C
  Peak	145,62 °C

Sample:
  ClaudiaOlga_DSC_GR39, 8,1000 mg

________________________________________________________________________________
Not signed                                                        STARe SW 16.40