File: DSC/PLA-4-20-Brabender.txt
Grazia_DSC_GR37                                                 19.01.2023 12:20
________________________________________________________________________________

Curve Name:
  Grazia_DSC_GR37, 19.01.2023 12:03:32
  Performed 19.01.2023 12:03:32
Curve Values:
          Index              t             Ts          Value
                           [s]           [°C]           [mW]
              0              0        -79,997       0,627492
              4              4        -78,658        1,55888
              8              8        -77,336      -0,517216
             12             12        -76,018       -2,96794
             16             16        -74,693       -4,27505
             20             20        -73,364       -4,93351
             24             24        -72,034       -5,28307
             28             28        -70,703       -5,47107
             32             32        -69,371       -5,56467
             36             36        -68,039       -5,59462
             40             40        -66,707       -5,59005
             44             44        -65,374       -5,56283
             48             48        -64,041       -5,52474
             52             52        -62,709       -5,48301
             56             56        -61,376       -5,43241
             60             60        -60,043       -5,38535
             64             64        -58,711       -5,33692
             68             68        -57,378       -5,29116
             72             72        -56,045       -5,25383
             76             76        -54,713       -5,21437
             80             80        -53,380       -5,18062
             84             84        -52,047       -5,14915
             88             88        -50,715       -5,11367
             92             92        -49,382       -5,08659
             96             96        -48,049       -5,05663
            100            100        -46,717       -5,03085
            104            104        -45,384       -5,00727
            108            108        -44,051       -4,98514
            112            112        -42,719       -4,96308
            116            116        -41,386       -4,94176
            120            120        -40,054       -4,92489
            124            124        -38,721       -4,90832
            128            128        -37,389       -4,89412
            132            132        -36,056       -4,88215
            136            136        -34,724        -4,8714
            140            140        -33,391       -4,85517
            144            144        -32,059       -4,84425
            148            148        -30,726       -4,83663
            152            152        -29,394        -4,8285
            156            156        -28,062       -4,82304
            160            160        -26,729       -4,82006
            164            164        -25,397       -4,81811
            168            168        -24,065       -4,81724
            172            172        -22,732        -4,8171
            176            176        -21,400       -4,81801
            180            180        -20,068       -4,81773
            184            184        -18,735       -4,81724
            188            188        -17,403       -4,81744
            192            192        -16,071       -4,81813
            196            196        -14,739        -4,8195
            200            200        -13,406       -4,82087
            204            204        -12,074       -4,82213
            208            208        -10,742       -4,82346
            212            212         -9,410       -4,82396
            216            216         -8,077       -4,82487
            220            220         -6,745       -4,82581
            224            224         -5,413       -4,82607
            228            228         -4,081       -4,82693
            232            232         -2,748       -4,82583
            236            236         -1,416       -4,82131
            240            240    -83,614e-03        -4,8168
            244            244          1,249       -4,80967
            248            248          2,581       -4,79903
            252            252          3,914       -4,79699
            256            256          5,246       -4,79326
            260            260          6,578       -4,78798
            264            264          7,911       -4,78191
            268            268          9,243       -4,78744
            272            272         10,575       -4,79557
            276            276         11,907       -4,80538
            280            280         13,239       -4,81642
            284            284         14,571       -4,83096
            288            288         15,903       -4,84712
            292            292         17,235       -4,86814
            296            296         18,566       -4,89114
            300            300         19,898       -4,91594
            304            304         21,230        -4,9522
            308            308         22,561       -4,99158
            312            312         23,892       -5,03581
            316            316         25,223       -5,09053
            320            320         26,554       -5,15282
            324            324         27,885       -5,22163
            328            328         29,215       -5,29648
            332            332         30,546       -5,37592
            336            336         31,876       -5,45729
            340            340         33,206       -5,53561
            344            344         34,537       -5,61063
            348            348         35,867       -5,68368
            352            352         37,198       -5,74706
            356            356         38,528       -5,80232
            360            360         39,859       -5,84775
            364            364         41,191       -5,87184
            368            368         42,523       -5,87672
            372            372         43,855       -5,85232
            376            376         45,188       -5,81185
            380            380         46,521       -5,77336
            384            384         47,854       -5,74565
            388            388         49,187       -5,72488
            392            392         50,519       -5,70733
            396            396         51,852       -5,69485
            400            400         53,184       -5,68414
            404            404         54,516        -5,6738
            408            408         55,849       -5,66546
            412            412         57,181       -5,65837
            416            416         58,513       -5,64702
            420            420         59,845       -5,63879
            424            424         61,178       -5,62474
            428            428         62,510       -5,60884
            432            432         63,843       -5,59117
            436            436         65,175       -5,57281
            440            440         66,508       -5,55698
            444            444         67,841       -5,53531
            448            448         69,173       -5,50691
            452            452         70,507       -5,47444
            456            456         71,840       -5,43585
            460            460         73,173       -5,38103
            464            464         74,508       -5,30256
            468            468         75,844        -5,1808
            472            472         77,182       -4,98588
            476            476         78,524       -4,66307
            480            480         79,873       -4,11633
            484            484         81,234       -3,18964
            488            488         82,610       -1,81985
            492            492         83,971      -0,922688
            496            496         85,292       -1,31044
            500            500         86,591       -2,36202
            504            504         87,892       -3,35192
            508            508         89,202       -4,04245
            512            512         90,521       -4,47764
            516            516         91,844       -4,74625
            520            520         93,171       -4,91443
            524            524         94,500       -5,02013
            528            528         95,829       -5,09262
            532            532         97,160       -5,14414
            536            536         98,491       -5,18216
            540            540         99,822        -5,2117
            544            544        101,153       -5,23688
            548            548        102,485        -5,2592
            552            552        103,816       -5,28048
            556            556        105,148       -5,30116
            560            560        106,479       -5,32173
            564            564        107,811       -5,34316
            568            568        109,142       -5,36539
            572            572        110,473       -5,38856
            576            576        111,805       -5,41251
            580            580        113,136       -5,43661
            584            584        114,467       -5,46212
            588            588        115,798        -5,4903
            592            592        117,129       -5,52042
            596            596        118,460       -5,55309
            600            600        119,791       -5,58895
            604            604        121,122       -5,62827
            608            608        122,452       -5,67435
            612            612        123,783       -5,72357
            616            616        125,113       -5,77886
            620            620        126,442       -5,84127
            624            624        127,772       -5,91291
            628            628        129,100       -6,00335
            632            632        130,428       -6,12403
            636            636        131,753       -6,30263
            640            640        133,075       -6,55838
            644            644        134,395       -6,84297
            648            648        135,719        -7,0416
            652            652        137,048       -7,11887
            656            656        138,379       -7,14379
            660            660        139,706       -7,25793
            664            664        141,027       -7,53632
            668            668        142,340       -7,98984
            672            672        143,646       -8,63622
            676            676        144,939       -9,55496
            680            680        146,227       -10,6198
            684            684        147,553       -10,7355
            688            688        148,926       -9,74699
            692            692        150,313       -8,40458
            696            696        151,695       -7,22801
            700            700        153,058       -6,48148
            704            704        154,407       -6,08855
            708            708        155,748        -5,8875
            712            712        157,084       -5,79575
            716            716        158,418       -5,74948
            720            720        159,751       -5,72655
            724            724        161,084       -5,72024
            728            728        162,416       -5,71626
            732            732        163,749       -5,71298
            736            736        165,081       -5,71023
            740            740        166,413       -5,70818
            744            744        167,746       -5,70673
            748            748        169,078       -5,70583
            752            752        170,410       -5,70522
            756            756        171,743       -5,70547
            760            760        173,075       -5,70623
            764            764        174,407       -5,70697
            768            768        175,739        -5,7075
            772            772        177,071       -5,70856
            776            776        178,404       -5,71036
            780            780        179,736       -5,71224
            784            784        181,068        -5,7136
            788            788        182,400       -5,71477
            792            792        183,732       -5,71557
            796            796        185,065       -5,71651
            800            800        186,397       -5,71826
            804            804        187,729       -5,72041
            808            808        189,061       -5,72191
            812            812        190,394       -5,72358
            816            816        191,726       -5,72541
            820            820        193,058       -5,72718
            824            824        194,390       -5,72896
            828            828        195,722        -5,7312
            832            832        197,055       -5,73433
            836            836        198,387       -5,73736
            840            840        199,703       -6,05771
            844            844        198,469       -4,04293
            848            848        197,342       0,172177
            852            852        196,151        3,11233
            856            856        194,894        4,70347
            860            860        193,598        5,51154
            864            864        192,283        5,91734
            868            868        190,959        6,11895
            872            872        189,629        6,21793
            876            876        188,297         6,2662
            880            880        186,963        6,28753
            884            884        185,629         6,2955
            888            888        184,295        6,29523
            892            892        182,960        6,28911
            896            896        181,625        6,28047
            900            900        180,290        6,27054
            904            904        178,955        6,26062
            908            908        177,620        6,25039
            912            912        176,285        6,23954
            916            916        174,950        6,22867
            920            920        173,615        6,21685
            924            924        172,280        6,20387
            928            928        170,945        6,18972
            932            932        169,610        6,17396
            936            936        168,274        6,15672
            940            940        166,939        6,13777
            944            944        165,604        6,11855
            948            948        164,268        6,10059
            952            952        162,933        6,08377
            956            956        161,598        6,06644
            960            960        160,263        6,04775
            964            964        158,927         6,0298
            968            968        157,592        6,01409
            972            972        156,257        6,00041
            976            976        154,922         5,9888
            980            980        153,587        5,98233
            984            984        152,252        5,97623
            988            988        150,918        5,96965
            992            992        149,583         5,9649
            996            996        148,248        5,96048
           1000           1000        146,913         5,9546
           1004           1004        145,579        5,94997
           1008           1008        144,244        5,95235
           1012           1012        142,910         5,9626
           1016           1016        141,576        5,98229
           1020           1020        140,243          6,005
           1024           1024        138,909        6,02727
           1028           1028        137,575        6,04503
           1032           1032        136,241        6,05494
           1036           1036        134,907        6,05555
           1040           1040        133,572        6,04937
           1044           1044        132,237         6,0382
           1048           1048        130,902        6,02493
           1052           1052        129,567        6,01111
           1056           1056        128,232        5,99936
           1060           1060        126,897        5,99113
           1064           1064        125,562        5,98699
           1068           1068        124,227        5,98554
           1072           1072        122,893        5,98322
           1076           1076        121,558        5,97845
           1080           1080        120,223        5,97286
           1084           1084        118,888        5,96687
           1088           1088        117,553        5,95841
           1092           1092        116,219         5,9521
           1096           1096        114,884        5,94224
           1100           1100        113,549        5,93173
           1104           1104        112,214        5,91766
           1108           1108        110,878        5,89868
           1112           1112        109,543         5,8807
           1116           1116        108,208        5,86475
           1120           1120        106,873        5,85103
           1124           1124        105,538        5,83984
           1128           1128        104,203        5,83181
           1132           1132        102,868        5,82624
           1136           1136        101,534        5,82279
           1140           1140        100,199        5,82233
           1144           1144         98,864         5,8248
           1148           1148         97,530        5,82802
           1152           1152         96,195        5,83102
           1156           1156         94,861        5,83501
           1160           1160         93,526        5,83967
           1164           1164         92,192         5,8424
           1168           1168         90,857        5,84102
           1172           1172         89,522        5,83595
           1176           1176         88,188        5,82886
           1180           1180         86,853        5,82225
           1184           1184         85,518        5,81577
           1188           1188         84,183        5,80708
           1192           1192         82,848         5,7829
           1196           1196         81,512        5,74617
           1200           1200         80,176        5,70802
           1204           1204         78,840        5,67304
           1208           1208         77,505        5,65211
           1212           1212         76,171        5,65217
           1216           1216         74,836        5,66731
           1220           1220         73,502         5,6925
           1224           1224         72,169        5,72183
           1228           1228         70,835        5,75044
           1232           1232         69,501        5,77633
           1236           1236         68,167        5,79421
           1240           1240         66,832        5,80407
           1244           1244         65,498         5,8104
           1248           1248         64,163        5,81302
           1252           1252         62,829        5,81409
           1256           1256         61,494        5,81435
           1260           1260         60,159        5,81436
           1264           1264         58,825        5,81388
           1268           1268         57,490        5,81311
           1272           1272         56,155        5,81194
           1276           1276         54,821        5,80984
           1280           1280         53,486        5,80623
           1284           1284         52,151        5,80347
           1288           1288         50,817        5,80374
           1292           1292         49,482        5,80338
           1296           1296         48,147        5,80128
           1300           1300         46,812        5,79159
           1304           1304         45,478        5,79706
           1308           1308         44,143        5,79517
           1312           1312         42,809        5,79478
           1316           1316         41,474        5,79616
           1320           1320         40,140        5,80042
           1324           1324         38,805        5,80762
           1328           1328         37,471        5,81361
           1332           1332         36,136        5,81539
           1336           1336         34,801        5,81535
           1340           1340         33,467        5,81071
           1344           1344         32,132        5,80098
           1348           1348         30,797        5,78528
           1352           1352         29,462        5,76433
           1356           1356         28,126        5,73546
           1360           1360         26,791        5,70093
           1364           1364         25,456        5,65938
           1368           1368         24,120        5,61075
           1372           1372         22,784         5,5524
           1376           1376         21,448        5,48906
           1380           1380         20,112        5,42362
           1384           1384         18,776         5,3588
           1388           1388         17,441        5,29486
           1392           1392         16,105        5,23602
           1396           1396         14,769        5,18044
           1400           1400         13,434        5,12528
           1404           1404         12,098        5,07535
           1408           1408         10,763        5,02828
           1412           1412          9,428        4,97716
           1416           1416          8,092        4,92654
           1420           1420          6,757        4,87668
           1424           1424          5,421        4,82667
           1428           1428          4,086        4,77196
           1432           1432          2,751        4,74602
           1436           1436          1,416        4,71295
           1440           1440     81,315e-03        4,68435
           1444           1444         -1,253        4,66432
           1448           1448         -2,588        4,64315
           1452           1452         -3,923        4,64346
           1456           1456         -5,257         4,6437
           1460           1460         -6,591        4,67748
           1464           1464         -7,924        4,72325
           1468           1468         -9,254        5,01749
           1472           1472        -10,590        4,93872
           1476           1476        -11,925        4,88031
           1480           1480        -13,260        4,83779
           1484           1484        -14,595        4,81669
           1488           1488        -15,930        4,79856
           1492           1492        -17,264        4,78457
           1496           1496        -18,599        4,77105
           1500           1500        -19,933        4,76394
           1504           1504        -21,268         4,7597
           1508           1508        -22,602        4,75715
           1512           1512        -23,936         4,7566
           1516           1516        -25,271        4,75723
           1520           1520        -26,605        4,75801
           1524           1524        -27,939        4,75859
           1528           1528        -29,274        4,76057
           1532           1532        -30,608        4,76227
           1536           1536        -31,942        4,76472
           1540           1540        -33,276        4,76885
           1544           1544        -34,611        4,77457
           1548           1548        -35,945        4,78057
           1552           1552        -37,279        4,78535
           1556           1556        -38,613        4,79104
           1560           1560        -39,948        4,80295
           1564           1564        -41,282         4,8108
           1568           1568        -42,616        4,80933
           1572           1572        -43,950        4,82994
           1576           1576        -45,284        4,84564
           1580           1580        -46,618        4,85636
           1584           1584        -47,953        4,87064
           1588           1588        -49,287        4,88401
           1592           1592        -50,621        4,89556
           1596           1596        -51,955        4,90754
           1600           1600        -53,289        4,91452
           1604           1604        -54,623        4,92845
           1608           1608        -55,957        4,94493
           1612           1612        -57,292        4,96387
           1616           1616        -58,626         4,9792
           1620           1620        -59,960        4,99883
           1624           1624        -61,294        5,01005
           1628           1628        -62,628        5,02787
           1632           1632        -63,962        5,03483
           1636           1636        -65,296        5,04447
           1640           1640        -66,631        5,03276
           1644           1644        -67,965        5,01499
           1648           1648        -69,300        4,96351
           1652           1652        -70,634        4,92646
           1656           1656        -71,969        4,87991
           1660           1660        -73,303        4,82741
           1664           1664        -74,638        4,77858
           1668           1668        -75,972        4,72894
           1672           1672        -77,306        4,67799
           1676           1676        -78,641        4,61871
           1680           1680        -79,975        4,58305
           1684           1684        -78,636        5,44012
           1688           1688        -77,311        3,86851
           1692           1692        -75,999       0,227178
           1696           1696        -74,680       -2,27028
           1700           1700        -73,356       -3,68735
           1704           1704        -72,029       -4,46716
           1708           1708        -70,699        -4,8851
           1712           1712        -69,368       -5,10861
           1716           1716        -68,036       -5,21696
           1720           1720        -66,704       -5,23758
           1724           1724        -65,372       -5,23885
           1728           1728        -64,039       -5,22272
           1732           1732        -62,706       -5,18501
           1736           1736        -61,374       -5,14557
           1740           1740        -60,041       -5,11002
           1744           1744        -58,708       -5,07125
           1748           1748        -57,376       -5,03208
           1752           1752        -56,043       -4,99749
           1756           1756        -54,710       -4,95992
           1760           1760        -53,378       -4,92661
           1764           1764        -52,045       -4,89647
           1768           1768        -50,712       -4,86992
           1772           1772        -49,380       -4,84105
           1776           1776        -48,047       -4,81613
           1780           1780        -46,714       -4,79419
           1784           1784        -45,382       -4,77225
           1788           1788        -44,049       -4,75601
           1792           1792        -42,716       -4,73298
           1796           1796        -41,384       -4,71671
           1800           1800        -40,051       -4,69793
           1804           1804        -38,719       -4,68067
           1808           1808        -37,386       -4,66438
           1812           1812        -36,054        -4,6422
           1816           1816        -34,721       -4,63031
           1820           1820        -33,388       -4,61681
           1824           1824        -32,056       -4,60465
           1828           1828        -30,723       -4,59338
           1832           1832        -29,391       -4,58184
           1836           1836        -28,058       -4,57181
           1840           1840        -26,726       -4,56544
           1844           1844        -25,393       -4,55624
           1848           1848        -24,061        -4,5538
           1852           1852        -22,729       -4,55422
           1856           1856        -21,396       -4,55682
           1860           1860        -20,064        -4,5578
           1864           1864        -18,732       -4,55843
           1868           1868        -17,399       -4,55896
           1872           1872        -16,067       -4,55987
           1876           1876        -14,735       -4,55822
           1880           1880        -13,402       -4,55752
           1884           1884        -12,070       -4,55968
           1888           1888        -10,738       -4,56162
           1892           1892         -9,405        -4,5626
           1896           1896         -8,073       -4,56257
           1900           1900         -6,741       -4,56278
           1904           1904         -5,408       -4,56391
           1908           1908         -4,076       -4,56499
           1912           1912         -2,744       -4,56563
           1916           1916         -1,412       -4,56805
           1920           1920    -79,324e-03       -4,56965
           1924           1924          1,253       -4,57196
           1928           1928          2,585       -4,57444
           1932           1932          3,917       -4,57658
           1936           1936          5,250        -4,5806
           1940           1940          6,582       -4,58764
           1944           1944          7,914       -4,59877
           1948           1948          9,246       -4,61166
           1952           1952         10,578       -4,62547
           1956           1956         11,910       -4,64038
           1960           1960         13,242        -4,6479
           1964           1964         14,574       -4,66448
           1968           1968         15,906       -4,69292
           1972           1972         17,238       -4,72797
           1976           1976         18,569       -4,76713
           1980           1980         19,900       -4,81456
           1984           1984         21,231       -4,86866
           1988           1988         22,562       -4,93108
           1992           1992         23,893       -5,00246
           1996           1996         25,224       -5,08265
           2000           2000         26,554       -5,16928
           2004           2004         27,884       -5,25762
           2008           2008         29,214       -5,34586
           2012           2012         30,544       -5,43093
           2016           2016         31,875       -5,50415
           2020           2020         33,206       -5,55164
           2024           2024         34,537       -5,58852
           2028           2028         35,869       -5,59045
           2032           2032         37,202        -5,5781
           2036           2036         38,534       -5,56263
           2040           2040         39,867       -5,54635
           2044           2044         41,199       -5,52966
           2048           2048         42,531       -5,51956
           2052           2052         43,864       -5,51154
           2056           2056         45,196       -5,50413
           2060           2060         46,528       -5,49783
           2064           2064         47,861       -5,49224
           2068           2068         49,193       -5,48717
           2072           2072         50,525       -5,48162
           2076           2076         51,857       -5,47562
           2080           2080         53,189       -5,47378
           2084           2084         54,522       -5,47358
           2088           2088         55,854       -5,47264
           2092           2092         57,186       -5,47126
           2096           2096         58,518       -5,46987
           2100           2100         59,850       -5,46858
           2104           2104         61,182       -5,46686
           2108           2108         62,514       -5,46498
           2112           2112         63,847       -5,45761
           2116           2116         65,179       -5,45087
           2120           2120         66,511       -5,44434
           2124           2124         67,843       -5,43717
           2128           2128         69,176        -5,4294
           2132           2132         70,508        -5,4214
           2136           2136         71,840        -5,4124
           2140           2140         73,173       -5,39928
           2144           2144         74,506       -5,37979
           2148           2148         75,839       -5,34724
           2152           2152         77,172       -5,29503
           2156           2156         78,507       -5,20806
           2160           2160         79,844       -5,05893
           2164           2164         81,184       -4,81113
           2168           2168         82,529       -4,40963
           2172           2172         83,881       -3,77029
           2176           2176         85,245       -2,79428
           2180           2180         86,621       -1,42866
           2184           2184         88,002      0,0613907
           2188           2188         89,355       0,669025
           2192           2192         90,656      -0,314966
           2196           2196         91,936       -1,96187
           2200           2200         93,226        -3,2478
           2204           2204         94,533       -4,00656
           2208           2208         95,852       -4,41906
           2212           2212         97,176       -4,65128
           2216           2216         98,504       -4,79165
           2220           2220         99,833       -4,88634
           2224           2224        101,163       -4,95487
           2228           2228        102,493       -5,00746
           2232           2232        103,824       -5,04799
           2236           2236        105,155       -5,08261
           2240           2240        106,486       -5,11464
           2244           2244        107,818       -5,14458
           2248           2248        109,149       -5,17372
           2252           2252        110,480       -5,20357
           2256           2256        111,811       -5,23422
           2260           2260        113,142       -5,26594
           2264           2264        114,473       -5,29927
           2268           2268        115,804       -5,33446
           2272           2272        117,135       -5,37245
           2276           2276        118,465       -5,41482
           2280           2280        119,796       -5,46034
           2284           2284        121,126       -5,50935
           2288           2288        122,456       -5,56778
           2292           2292        123,786       -5,63395
           2296           2296        125,115       -5,70845
           2300           2300        126,444       -5,79576
           2304           2304        127,772       -5,90075
           2308           2308        129,099       -6,03799
           2312           2312        130,423       -6,24073
           2316           2316        131,741       -6,59162
           2320           2320        133,053       -7,11014
           2324           2324        134,370       -7,49206
           2328           2328        135,700         -7,531
           2332           2332        137,039       -7,34503
           2336           2336        138,376        -7,2122
           2340           2340        139,703        -7,3453
           2344           2344        141,017       -7,79184
           2348           2348        142,320       -8,48326
           2352           2352        143,619       -9,29297
           2356           2356        144,921         -9,999
           2360           2360        146,246       -10,1578
           2364           2364        147,616       -9,22687
           2368           2368        149,015       -7,60651
           2372           2372        150,397       -6,41458
           2376           2376        151,751       -5,88614
           2380           2380        153,092       -5,67813
           2384           2384        154,428       -5,59251
           2388           2388        155,762       -5,55574
           2392           2392        157,095       -5,54028
           2396           2396        158,428       -5,53364
           2400           2400        159,760       -5,53169
           2404           2404        161,092       -5,53149
           2408           2408        162,424       -5,53253
           2412           2412        163,757       -5,53455
           2416           2416        165,089         -5,537
           2420           2420        166,421        -5,5398
           2424           2424        167,753       -5,54271
           2428           2428        169,085       -5,54606
           2432           2432        170,417       -5,54937
           2436           2436        171,749       -5,55219
           2440           2440        173,082       -5,55493
           2444           2444        174,414       -5,55724
           2448           2448        175,746       -5,55958
           2452           2452        177,078       -5,56171
           2456           2456        178,410       -5,56373
           2460           2460        179,743       -5,56646
           2464           2464        181,075       -5,56998
           2468           2468        182,407        -5,5732
           2472           2472        183,739       -5,57609
           2476           2476        185,071       -5,57903
           2480           2480        186,403       -5,58228
           2484           2484        187,736       -5,58532
           2488           2488        189,068         -5,588
           2492           2492        190,400       -5,59083
           2496           2496        191,732       -5,59398
           2500           2500        193,064        -5,5971
           2504           2504        194,396       -5,59979
           2508           2508        195,729       -5,60239
           2512           2512        197,061       -5,60533
           2516           2516        198,393       -5,60907
           2520           2520        199,725       -5,61289

Results:
  Step	-0,15 Wg^-1
  	-0,91 mW
  Onset	23,14 °C
  Inflect. Pt.	31,21 °C
  Midpoint	28,61 °C
  Angle Midpoint	31,91 °C

  Step	-0,13 Wg^-1
  	-0,85 mW
  Onset	19,78 °C
  Inflect. Pt.	27,88 °C
  Midpoint	24,84 °C
  Angle Midpoint	26,91 °C

  Integral	104,03 mJ
    normalized	16,51 Jg^-1
  Onset	78,99 °C
  Peak	84,30 °C

  Integral	-163,86 mJ
    normalized	-26,01 Jg^-1
  Onset	140,05 °C
  Peak	147,21 °C

  Integral	131,05 mJ
    normalized	20,80 Jg^-1
  Onset	83,12 °C
  Peak	89,02 °C

  Integral	-167,64 mJ
    normalized	-26,61 Jg^-1
  Onset	137,34 °C
  Peak	145,91 °C

  Extrapol. Peak	131,85 °C
    normalized	-1,11 Wg^-1
  Peak	135,28 °C

  Extrapol. Peak	134,61 °C
    normalized	-1,20 Wg^-1
  Peak	135,03 °C

  Step	-0,18 Wg^-1
  	-1,16 mW
  Onset	28,18 °C
  Inflect. Pt.	20,45 °C
  Midpoint	15,94 °C
  Angle Midpoint	16,58 °C

Sample:
  Grazia_DSC_GR37, 6,3000 mg

________________________________________________________________________________
Not signed                                                        STARe SW 16.40