File: DSC/PLA-2-30.txt
Grazia_DSC_GR32                                                 01.02.2023 15:48
________________________________________________________________________________

Curve Name:
  Grazia_DSC_GR32, 01.02.2023 14:45:34
  Performed 01.02.2023 14:45:34
Curve Values:
          Index              t             Ts          Value
                           [s]           [°C]           [mW]
              0              0        -79,997       0,586054
              4              4        -78,666      0,0533884
              8              8        -77,352       -3,23901
             12             12        -76,033       -5,53278
             16             16        -74,706       -6,53204
             20             20        -73,377       -6,93589
             24             24        -72,046       -7,08609
             28             28        -70,714       -7,11836
             32             32        -69,382       -7,10472
             36             36        -68,049        -7,0614
             40             40        -66,717       -7,00681
             44             44        -65,384       -6,95146
             48             48        -64,052       -6,88886
             52             52        -62,719       -6,83135
             56             56        -61,387       -6,77729
             60             60        -60,054       -6,72531
             64             64        -58,722       -6,67894
             68             68        -57,389       -6,63283
             72             72        -56,057       -6,59213
             76             76        -54,724       -6,54617
             80             80        -53,392       -6,49896
             84             84        -52,059       -6,45857
             88             88        -50,727        -6,4171
             92             92        -49,394       -6,37448
             96             96        -48,062       -6,34055
            100            100        -46,729       -6,30748
            104            104        -45,397       -6,27621
            108            108        -44,065       -6,24615
            112            112        -42,732        -6,2159
            116            116        -41,400       -6,18831
            120            120        -40,067       -6,16215
            124            124        -38,735        -6,1414
            128            128        -37,403       -6,11888
            132            132        -36,070       -6,09515
            136            136        -34,738       -6,07446
            140            140        -33,406       -6,04929
            144            144        -32,073       -6,02762
            148            148        -30,741       -6,00847
            152            152        -29,409       -5,99147
            156            156        -28,076       -5,97425
            160            160        -26,744       -5,95825
            164            164        -25,412       -5,94266
            168            168        -24,079       -5,93029
            172            172        -22,747        -5,9205
            176            176        -21,415       -5,90784
            180            180        -20,083       -5,89094
            184            184        -18,750       -5,86656
            188            188        -17,418        -5,8542
            192            192        -16,086       -5,84703
            196            196        -14,754       -5,84047
            200            200        -13,422       -5,83293
            204            204        -12,089       -5,82456
            208            208        -10,757        -5,8174
            212            212         -9,425       -5,81229
            216            216         -8,093       -5,80796
            220            220         -6,761       -5,80315
            224            224         -5,429       -5,79766
            228            228         -4,097       -5,79225
            232            232         -2,765        -5,7889
            236            236         -1,432       -5,78688
            240            240         -0,100        -5,7867
            244            244          1,232       -5,78701
            248            248          2,564       -5,78453
            252            252          3,896       -5,78059
            256            256          5,228       -5,77763
            260            260          6,560        -5,7785
            264            264          7,892       -5,78045
            268            268          9,224       -5,78255
            272            272         10,556       -5,78623
            276            276         11,888       -5,79161
            280            280         13,220       -5,79776
            284            284         14,552       -5,80602
            288            288         15,883       -5,82091
            292            292         17,215       -5,83902
            296            296         18,547       -5,86324
            300            300         19,878       -5,89136
            304            304         21,209       -5,92243
            308            308         22,541       -5,96177
            312            312         23,872       -6,00461
            316            316         25,203       -6,04795
            320            320         26,534       -6,09099
            324            324         27,865       -6,14032
            328            328         29,195       -6,19808
            332            332         30,526       -6,23526
            336            336         31,857       -6,27386
            340            340         33,189       -6,31266
            344            344         34,520       -6,34949
            348            348         35,851       -6,38325
            352            352         37,182       -6,41323
            356            356         38,513       -6,43862
            360            360         39,845       -6,46204
            364            364         41,176       -6,47545
            368            368         42,508        -6,4919
            372            372         43,839       -6,50924
            376            376         45,170       -6,52577
            380            380         46,502        -6,5412
            384            384         47,834       -6,55413
            388            388         49,165       -6,56429
            392            392         50,497        -6,5747
            396            396         51,828        -6,5863
            400            400         53,160       -6,59798
            404            404         54,491       -6,60836
            408            408         55,823       -6,61777
            412            412         57,155       -6,62778
            416            416         58,486       -6,63925
            420            420         59,818       -6,65144
            424            424         61,149       -6,66582
            428            428         62,480       -6,68331
            432            432         63,812       -6,70307
            436            436         65,143       -6,72464
            440            440         66,474       -6,75175
            444            444         67,805       -6,78325
            448            448         69,135       -6,81742
            452            452         70,466       -6,85543
            456            456         71,797       -6,89582
            460            460         73,127       -6,93863
            464            464         74,458       -6,98186
            468            468         75,788       -7,02434
            472            472         77,119       -7,06603
            476            476         78,449       -7,10633
            480            480         79,780       -7,14534
            484            484         81,110       -7,18198
            488            488         82,441       -7,21661
            492            492         83,772       -7,24849
            496            496         85,102       -7,27901
            500            500         86,433       -7,30731
            504            504         87,764       -7,33272
            508            508         89,095       -7,35318
            512            512         90,426       -7,37148
            516            516         91,757       -7,38741
            520            520         93,089       -7,39945
            524            524         94,420        -7,3959
            528            528         95,755       -7,31281
            532            532         97,085       -7,35219
            536            536         98,417       -7,36532
            540            540         99,748       -7,37625
            544            544        101,079       -7,38855
            548            548        102,411       -7,40172
            552            552        103,742       -7,41693
            556            556        105,073       -7,43545
            560            560        106,404       -7,45626
            564            564        107,735       -7,47883
            568            568        109,066       -7,50497
            572            572        110,396       -7,53467
            576            576        111,727       -7,56626
            580            580        113,057       -7,60003
            584            584        114,388        -7,6359
            588            588        115,718       -7,67558
            592            592        117,048       -7,71922
            596            596        118,378         -7,766
            600            600        119,708       -7,82065
            604            604        121,037       -7,87858
            608            608        122,367       -7,94099
            612            612        123,696       -8,00966
            616            616        125,025       -8,08391
            620            620        126,353       -8,16739
            624            624        127,681       -8,26155
            628            628        129,009         -8,368
            632            632        130,335       -8,49173
            636            636        131,661       -8,63369
            640            640        132,987       -8,79316
            644            644        134,311       -8,96287
            648            648        135,636       -9,14038
            652            652        136,960       -9,33026
            656            656        138,283       -9,53112
            660            660        139,605       -9,75411
            664            664        140,926        -10,018
            668            668        142,244       -10,3474
            672            672        143,556       -10,8238
            676            676        144,857       -11,5414
            680            680        146,158       -12,2802
            684            684        147,465        -12,839
            688            688        148,798       -12,7979
            692            692        150,168       -11,8675
            696            696        151,553       -10,5859
            700            700        152,941        -9,2381
            704            704        154,312       -8,31766
            708            708        155,665       -7,83202
            712            712        157,007       -7,57633
            716            716        158,346       -7,42769
            720            720        159,682       -7,32585
            724            724        161,017       -7,25645
            728            728        162,350       -7,22324
            732            732        163,683       -7,21643
            736            736        165,015       -7,20845
            740            740        166,347       -7,20008
            744            744        167,679       -7,19328
            748            748        169,012       -7,18823
            752            752        170,344       -7,18337
            756            756        171,676       -7,17918
            760            760        173,008       -7,17668
            764            764        174,340       -7,17473
            768            768        175,672       -7,17413
            772            772        177,004       -7,17539
            776            776        178,336       -7,17674
            780            780        179,668       -7,17852
            784            784        181,000       -7,18121
            788            788        182,332       -7,18497
            792            792        183,664       -7,18985
            796            796        184,995       -7,19411
            800            800        186,327       -7,19644
            804            804        187,659       -7,19846
            808            808        188,991       -7,19904
            812            812        190,323       -7,19817
            816            816        191,655       -7,19983
            820            820        192,987       -7,20019
            824            824        194,319       -7,19887
            828            828        195,651        -7,1973
            832            832        196,984       -7,19276
            836            836        198,316       -7,18232
            840            840        199,641        -7,3372
            844            844        198,438       -4,68771
            848            848        197,324      -0,194795
            852            852        196,150        3,09744
            856            856        194,910        5,04326
            860            860        193,628        6,12178
            864            864        192,321        6,70596
            868            868        191,002        7,02071
            872            872        189,675        7,18894
            876            876        188,345        7,27828
            880            880        187,012        7,32884
            884            884        185,679        7,35396
            888            888        184,345        7,36627
            892            892        183,010        7,37146
            896            896        181,676        7,37302
            900            900        180,341        7,37169
            904            904        179,006        7,36849
            908            908        177,671        7,36461
            912            912        176,336        7,35993
            916            916        175,001        7,35392
            920            920        173,666        7,34655
            924            924        172,331        7,33791
            928            928        170,996        7,32845
            932            932        169,661        7,31804
            936            936        168,326        7,30646
            940            940        166,990         7,2937
            944            944        165,655        7,27962
            948            948        164,318        7,22938
            952            952        162,982        7,20894
            956            956        161,647        7,19355
            960            960        160,312        7,17775
            964            964        158,976        7,16381
            968            968        157,641        7,15049
            972            972        156,306        7,13734
            976            976        154,971        7,12798
            980            980        153,635        7,12027
            984            984        152,300        7,11311
            988            988        150,965        7,10514
            992            992        149,630        7,09668
            996            996        148,295        7,09274
           1000           1000        146,961        7,09981
           1004           1004        145,627        7,12101
           1008           1008        144,294        7,15135
           1012           1012        142,960        7,18301
           1016           1016        141,626        7,21241
           1020           1020        140,293        7,23582
           1024           1024        138,958        7,24859
           1028           1028        137,624         7,2543
           1032           1032        136,289        7,25734
           1036           1036        134,954        7,25957
           1040           1040        133,620        7,26246
           1044           1044        132,285        7,26578
           1048           1048        130,950         7,2689
           1052           1052        129,616        7,27172
           1056           1056        128,281        7,27337
           1060           1060        126,946        7,27312
           1064           1064        125,611        7,27057
           1068           1068        124,276         7,2661
           1072           1072        122,941        7,25992
           1076           1076        121,606        7,25022
           1080           1080        120,270        7,23278
           1084           1084        118,935        7,21572
           1088           1088        117,599        7,20056
           1092           1092        116,264        7,19112
           1096           1096        114,929         7,1916
           1100           1100        113,595         7,2012
           1104           1104        112,260        7,21421
           1108           1108        110,926        7,22815
           1112           1112        109,592         7,2402
           1116           1116        108,257        7,24736
           1120           1120        106,922        7,25289
           1124           1124        105,588        7,26288
           1128           1128        104,253        7,27002
           1132           1132        102,918        7,26448
           1136           1136        101,582        7,24276
           1140           1140        100,246        7,21204
           1144           1144         98,911        7,18409
           1148           1148         97,575        7,16748
           1152           1152         96,240         7,1639
           1156           1156         94,906        7,17394
           1160           1160         93,571        7,18783
           1164           1164         92,237        7,20765
           1168           1168         90,903        7,23576
           1172           1172         89,569        7,26465
           1176           1176         88,235        7,29027
           1180           1180         86,900        7,30812
           1184           1184         85,566        7,32186
           1188           1188         84,231        7,32939
           1192           1192         82,896        7,33413
           1196           1196         81,561        7,33624
           1200           1200         80,226        7,33579
           1204           1204         78,891        7,33048
           1208           1208         77,556         7,3346
           1212           1212         76,221        7,33912
           1216           1216         74,886        7,34215
           1220           1220         73,552        7,34419
           1224           1224         72,217        7,34555
           1228           1228         70,882        7,34573
           1232           1232         69,547        7,34517
           1236           1236         68,212        7,34469
           1240           1240         66,877        7,34624
           1244           1244         65,542        7,34977
           1248           1248         64,207        7,35481
           1252           1252         62,872        7,36053
           1256           1256         61,537         7,3653
           1260           1260         60,202        7,36794
           1264           1264         58,867        7,36727
           1268           1268         57,532        7,35909
           1272           1272         56,196        7,33815
           1276           1276         54,860        7,29914
           1280           1280         53,524        7,23347
           1284           1284         52,186        7,13649
           1288           1288         50,848        7,01043
           1292           1292         49,509        6,86238
           1296           1296         48,170        6,70714
           1300           1300         46,832        6,56285
           1304           1304         45,494         6,4353
           1308           1308         44,156        6,32383
           1312           1312         42,819         6,2285
           1316           1316         41,483        6,15302
           1320           1320         40,146        6,06711
           1324           1324         38,806        5,85545
           1328           1328         37,472         5,8516
           1332           1332         36,136        5,81941
           1336           1336         34,801        5,79277
           1340           1340         33,466        5,77398
           1344           1344         32,131        5,76132
           1348           1348         30,796        5,74805
           1352           1352         29,461        5,74491
           1356           1356         28,127        5,74978
           1360           1360         26,792        5,74248
           1364           1364         25,457        5,73201
           1368           1368         24,122        5,72499
           1372           1372         22,788          5,733
           1376           1376         21,454        5,74422
           1380           1380         20,118        5,71817
           1384           1384         18,784        5,70977
           1388           1388         17,449        5,72138
           1392           1392         16,115        5,71567
           1396           1396         14,780         5,7081
           1400           1400         13,445        5,70111
           1404           1404         12,110        5,69383
           1408           1408         10,776        5,68702
           1412           1412          9,441        5,68387
           1416           1416          8,106        5,68224
           1420           1420          6,772        5,68235
           1424           1424          5,437        5,68364
           1428           1428          4,103        5,68646
           1432           1432          2,768        5,68896
           1436           1436          1,433        5,69194
           1440           1440     98,871e-03        5,69572
           1444           1444         -1,236        5,69825
           1448           1448         -2,570        5,70053
           1452           1452         -3,905        5,71175
           1456           1456         -5,239        5,72162
           1460           1460         -6,574        5,73207
           1464           1464         -7,908        5,74279
           1468           1468         -9,242        5,75529
           1472           1472        -10,577        5,76917
           1476           1476        -11,911        5,78262
           1480           1480        -13,246        5,79682
           1484           1484        -14,580        5,81199
           1488           1488        -15,914        5,82708
           1492           1492        -17,249        5,84136
           1496           1496        -18,583        5,85677
           1500           1500        -19,918         5,8712
           1504           1504        -21,252        5,88713
           1508           1508        -22,586        5,90522
           1512           1512        -23,921        5,92507
           1516           1516        -25,255        5,94556
           1520           1520        -26,589        5,96503
           1524           1524        -27,924        5,98357
           1528           1528        -29,258        6,00567
           1532           1532        -30,592        6,02484
           1536           1536        -31,927        6,04321
           1540           1540        -33,261        6,06359
           1544           1544        -34,595        6,09003
           1548           1548        -35,930        6,11429
           1552           1552        -37,264        6,13679
           1556           1556        -38,598        6,16216
           1560           1560        -39,932        6,18808
           1564           1564        -41,267        6,21895
           1568           1568        -42,601        6,24655
           1572           1572        -43,935        6,27343
           1576           1576        -45,269         6,3012
           1580           1580        -46,604        6,32901
           1584           1584        -47,938        6,36147
           1588           1588        -49,272        6,39625
           1592           1592        -50,606        6,43103
           1596           1596        -51,941        6,45807
           1600           1600        -53,275        6,48669
           1604           1604        -54,609        6,52325
           1608           1608        -55,944        6,55794
           1612           1612        -57,278        6,59263
           1616           1616        -58,612        6,62624
           1620           1620        -59,946        6,66008
           1624           1624        -61,281        6,69345
           1628           1628        -62,615        6,71949
           1632           1632        -63,949        6,74182
           1636           1636        -65,284        6,75261
           1640           1640        -66,618        6,75492
           1644           1644        -67,953        6,73663
           1648           1648        -69,288         6,7046
           1652           1652        -70,623        6,66002
           1656           1656        -71,957        6,60588
           1660           1660        -73,292        6,54944
           1664           1664        -74,627         6,4955
           1668           1668        -75,962        6,45423
           1672           1672        -77,297        6,40584
           1676           1676        -78,631        6,36821
           1680           1680        -79,966        6,35458
           1684           1684        -78,632        6,23659
           1688           1688        -77,317        2,77046
           1692           1692        -76,007       -1,24982
           1696           1696        -74,690       -3,79551
           1700           1700        -73,366       -5,22899
           1704           1704        -72,039       -5,99669
           1708           1708        -70,709       -6,39021
           1712           1712        -69,378       -6,58638
           1716           1716        -68,046       -6,66581
           1720           1720        -66,714       -6,67898
           1724           1724        -65,382       -6,66262
           1728           1728        -64,050       -6,63075
           1732           1732        -62,717        -6,5945
           1736           1736        -61,385       -6,55038
           1740           1740        -60,052       -6,50467
           1744           1744        -58,720       -6,45864
           1748           1748        -57,387       -6,41657
           1752           1752        -56,055       -6,36876
           1756           1756        -54,722       -6,32616
           1760           1760        -53,390       -6,28128
           1764           1764        -52,057       -6,23766
           1768           1768        -50,725       -6,19647
           1772           1772        -49,392       -6,15504
           1776           1776        -48,060       -6,11372
           1780           1780        -46,727        -6,0737
           1784           1784        -45,395       -6,03764
           1788           1788        -44,062       -6,00338
           1792           1792        -42,729       -5,96785
           1796           1796        -41,397        -5,9331
           1800           1800        -40,064       -5,90475
           1804           1804        -38,732       -5,87145
           1808           1808        -37,400       -5,84627
           1812           1812        -36,067       -5,81965
           1816           1816        -34,735         -5,793
           1820           1820        -33,402        -5,7695
           1824           1824        -32,070       -5,74645
           1828           1828        -30,737       -5,72294
           1832           1832        -29,405       -5,69909
           1836           1836        -28,072       -5,67537
           1840           1840        -26,740       -5,65303
           1844           1844        -25,408       -5,63064
           1848           1848        -24,075       -5,60819
           1852           1852        -22,743       -5,58777
           1856           1856        -21,410       -5,57202
           1860           1860        -20,078       -5,55551
           1864           1864        -18,746       -5,53897
           1868           1868        -17,413       -5,51975
           1872           1872        -16,081       -5,50303
           1876           1876        -14,748        -5,4875
           1880           1880        -13,416       -5,47187
           1884           1884        -12,084       -5,45942
           1888           1888        -10,751        -5,4454
           1892           1892         -9,419       -5,43075
           1896           1896         -8,087       -5,41756
           1900           1900         -6,754       -5,40436
           1904           1904         -5,422       -5,39241
           1908           1908         -4,090       -5,38283
           1912           1912         -2,758       -5,37137
           1916           1916         -1,425       -5,36051
           1920           1920    -92,892e-03       -5,35128
           1924           1924          1,239       -5,34324
           1928           1928          2,572       -5,33582
           1932           1932          3,904       -5,32843
           1936           1936          5,236       -5,32218
           1940           1940          6,568       -5,31569
           1944           1944          7,901       -5,31046
           1948           1948          9,233       -5,30698
           1952           1952         10,565       -5,30383
           1956           1956         11,897       -5,30098
           1960           1960         13,230       -5,29895
           1964           1964         14,562       -5,29783
           1968           1968         15,894       -5,29677
           1972           1972         17,226        -5,2958
           1976           1976         18,558        -5,2954
           1980           1980         19,890       -5,29639
           1984           1984         21,222       -5,29881
           1988           1988         22,554       -5,30298
           1992           1992         23,886       -5,30999
           1996           1996         25,218        -5,3201
           2000           2000         26,550       -5,33669
           2004           2004         27,882       -5,35234
           2008           2008         29,214       -5,34877
           2012           2012         30,546       -5,34615
           2016           2016         31,879       -5,34767
           2020           2020         33,211       -5,35145
           2024           2024         34,543        -5,3566
           2028           2028         35,875       -5,36363
           2032           2032         37,206       -5,37254
           2036           2036         38,538       -5,38253
           2040           2040         39,870       -5,39332
           2044           2044         41,202       -5,40646
           2048           2048         42,534       -5,42156
           2052           2052         43,866       -5,43867
           2056           2056         45,197       -5,45889
           2060           2060         46,528       -5,48833
           2064           2064         47,860       -5,52553
           2068           2068         49,191       -5,57448
           2072           2072         50,521       -5,64401
           2076           2076         51,850       -5,74391
           2080           2080         53,179       -5,88649
           2084           2084         54,505       -6,08944
           2088           2088         55,830       -6,35716
           2092           2092         57,154       -6,66413
           2096           2096         58,478       -6,94729
           2100           2100         59,805       -7,11408
           2104           2104         61,136       -7,14168
           2108           2108         62,469       -7,08504
           2112           2112         63,803       -7,01731
           2116           2116         65,136        -6,9734
           2120           2120         66,468       -6,95008
           2124           2124         67,800       -6,93802
           2128           2128         69,132       -6,93019
           2132           2132         70,465       -6,87732
           2136           2136         71,797       -6,88323
           2140           2140         73,129       -6,88944
           2144           2144         74,460       -6,89064
           2148           2148         75,792       -6,89099
           2152           2152         77,124       -6,89078
           2156           2156         78,456       -6,89005
           2160           2160         79,788       -6,88852
           2164           2164         81,119       -6,88766
           2168           2168         82,451       -6,88668
           2172           2172         83,783       -6,88603
           2176           2176         85,115       -6,88599
           2180           2180         86,447       -6,88584
           2184           2184         87,778        -6,8863
           2188           2188         89,110       -6,88731
           2192           2192         90,442       -6,88831
           2196           2196         91,774       -6,88857
           2200           2200         93,106       -6,88684
           2204           2204         94,437       -6,88374
           2208           2208         95,769       -6,88068
           2212           2212         97,101       -6,87733
           2216           2216         98,433       -6,87327
           2220           2220         99,765       -6,86705
           2224           2224        101,098       -6,85769
           2228           2228        102,430       -6,84558
           2232           2232        103,762       -6,83055
           2236           2236        105,095       -6,80825
           2240           2240        106,428       -6,77822
           2244           2244        107,761       -6,74147
           2248           2248        109,095       -6,69211
           2252           2252        110,429       -6,63545
           2256           2256        111,763       -6,56576
           2260           2260        113,098       -6,48249
           2264           2264        114,433       -6,38649
           2268           2268        115,769       -6,28356
           2272           2272        117,105       -6,17814
           2276           2276        118,441       -6,07399
           2280           2280        119,777       -5,97552
           2284           2284        121,112       -5,88729
           2288           2288        122,447       -5,81611
           2292           2292        123,781       -5,76416
           2296           2296        125,114       -5,73204
           2300           2300        126,447       -5,72192
           2304           2304        127,779       -5,73324
           2308           2308        129,109       -5,76672
           2312           2312        130,440       -5,82057
           2316           2316        131,769       -5,89594
           2320           2320        133,097       -5,98703
           2324           2324        134,425       -6,08774
           2328           2328        135,753       -6,19189
           2332           2332        137,081       -6,29814
           2336           2336        138,409       -6,40532
           2340           2340        139,737       -6,51305
           2344           2344        141,064       -6,62283
           2348           2348        142,391       -6,74432
           2352           2352        143,716       -6,91722
           2356           2356        145,035       -7,23947
           2360           2360        146,343       -7,81835
           2364           2364        147,641       -8,61679
           2368           2368        148,940       -9,39196
           2372           2372        150,249       -9,93664
           2376           2376        151,572       -10,1311
           2380           2380        152,918       -9,78783
           2384           2384        154,283       -9,01068
           2388           2388        155,652       -8,12533
           2392           2392        157,010       -7,52015
           2396           2396        158,355         -7,212
           2400           2400        159,693       -7,06434
           2404           2404        161,028       -6,99741
           2408           2408        162,362       -6,96457
           2412           2412        163,694       -6,95019
           2416           2416        165,026       -6,94588
           2420           2420        166,359       -6,94548
           2424           2424        167,690       -6,94688
           2428           2428        169,022        -6,9478
           2432           2432        170,354       -6,94833
           2436           2436        171,686       -6,95082
           2440           2440        173,018        -6,9547
           2444           2444        174,350       -6,95843
           2448           2448        175,682       -6,96203
           2452           2452        177,014       -6,96544
           2456           2456        178,346       -6,96895
           2460           2460        179,678       -6,97248
           2464           2464        181,009       -6,97598
           2468           2468        182,341        -6,9778
           2472           2472        183,673        -6,9803
           2476           2476        185,005       -6,98285
           2480           2480        186,337       -6,98376
           2484           2484        187,670       -6,96861
           2488           2488        189,002       -6,97408
           2492           2492        190,334       -6,98004
           2496           2496        191,666       -6,97778
           2500           2500        192,998       -6,97424
           2504           2504        194,330       -6,97733
           2508           2508        195,662       -6,97974
           2512           2512        196,994       -6,98143
           2516           2516        198,326        -6,9826
           2520           2520        199,658       -6,98312

Results:
  Step	-78,81e-03 Wg^-1
  	-0,64 mW
  Onset	19,93 °C
  Inflect. Pt.	27,86 °C
  Midpoint	28,65 °C
  Angle Midpoint	26,69 °C

  Step	-70,04e-03 Wg^-1
  	-0,57 mW
  Onset	66,36 °C
  Inflect. Pt.	73,79 °C
  Midpoint	75,41 °C
  Angle Midpoint	74,56 °C

  Step	-0,21 Wg^-1
  	-1,67 mW
  Onset	52,07 °C
  Inflect. Pt.	56,82 °C
  Midpoint	55,04 °C
  Angle Midpoint	56,04 °C

  Integral	-249,57 mJ
    normalized	-30,81 Jg^-1
  Onset	137,44 °C
  Peak	148,13 °C

  Integral	66,97 mJ
    normalized	8,27 Jg^-1
  Onset	108,74 °C
  Peak	126,11 °C

  Integral	-75,76 mJ
    normalized	-9,35 Jg^-1
  Onset	144,86 °C
  Peak	151,24 °C

Sample:
  Grazia_DSC_GR32, 8,1000 mg

________________________________________________________________________________
Not signed                                                        STARe SW 16.40