File: DSC/PLA-4-30.txt
Ruben_CUTESTEACEPIA30                                           30.11.2021 14:59
________________________________________________________________________________

Curve Name:
  Ruben_CUTESTEACEPIA30, 30.11.2021 13:50:01
  Performed 30.11.2021 13:50:00
Curve Values:
          Index              t             Ts          Value
                           [s]           [°C]           [mW]
              0              0       -99,9938        2,25501
              7              7       -97,6234        14,3715
             14             14        -95,312        6,54983
             21             21       -92,9949        1,44712
             28             28       -90,6702      -0,929683
             35             35       -88,3412       -1,96935
             42             42       -86,0103       -2,40464
             49             49       -83,6783       -2,57099
             56             56        -81,346       -2,63125
             63             63       -79,0134       -2,65201
             70             70       -76,6808       -2,65015
             77             77       -74,3483       -2,65755
             84             84       -72,0156       -2,65544
             91             91       -69,6832       -2,67484
             98             98       -67,3508       -2,70581
            105            105       -65,0187       -2,77284
            112            112       -62,6866       -2,83622
            119            119       -60,3549        -2,9412
            126            126       -58,0231       -3,03177
            133            133       -55,6912       -3,09955
            140            140       -53,3589       -3,11552
            147            147       -51,0265       -3,11121
            154            154       -48,6942        -3,1235
            161            161       -46,3622       -3,16181
            168            168       -44,0302       -3,19618
            175            175       -41,6981       -3,22007
            182            182        -39,366       -3,23605
            189            189       -37,0338       -3,24769
            196            196       -34,7017       -3,26107
            203            203       -32,3696       -3,27686
            210            210       -30,0376       -3,29929
            217            217       -27,7056       -3,31748
            224            224       -25,3737       -3,34258
            231            231       -23,0417       -3,36125
            238            238       -20,7098       -3,38039
            245            245       -18,3779       -3,40179
            252            252       -16,0459       -3,41848
            259            259       -13,7141       -3,43565
            266            266       -11,3822       -3,45373
            273            273        -9,0504       -3,47454
            280            280       -6,71862       -3,49561
            287            287       -4,38679       -3,51174
            294            294        -2,0548       -3,51758
            301            301       0,277225        -3,5208
            308            308        2,60939       -3,51531
            315            315        4,94167       -3,50283
            322            322        7,27392       -3,49279
            329            329        9,60597       -3,49497
            336            336        11,9378       -3,51024
            343            343        14,2695       -3,53107
            350            350        16,6011       -3,55571
            357            357        18,9326       -3,58306
            364            364         21,264       -3,61869
            371            371        23,5953       -3,65493
            378            378        25,9266       -3,69475
            385            385        28,2577       -3,73805
            392            392        30,5886       -3,79078
            399            399        32,9193       -3,85223
            406            406        35,2498       -3,92371
            413            413        37,5798       -4,00906
            420            420        39,9094       -4,11381
            427            427        42,2387       -4,23003
            434            434        44,5678       -4,35122
            441            441        46,8974       -4,44428
            448            448        49,2281       -4,48763
            455            455        51,5597       -4,49331
            462            462        53,8915       -4,49179
            469            469        56,2231       -4,49391
            476            476        58,5546       -4,50354
            483            483        60,8859       -4,52155
            490            490        63,2169       -4,54622
            497            497        65,5477       -4,57975
            504            504        67,8783       -4,61694
            511            511        70,2089       -4,65625
            518            518        72,5394        -4,6966
            525            525        74,8701       -4,73356
            532            532        77,2008       -4,76562
            539            539        79,5316       -4,79486
            546            546        81,8624       -4,82241
            553            553        84,1934       -4,84284
            560            560        86,5244       -4,86464
            567            567        88,8554       -4,88472
            574            574        91,1864       -4,90319
            581            581        93,5174       -4,92376
            588            588        95,8483       -4,94554
            595            595        98,1793       -4,96714
            602            602         100,51       -4,98951
            609            609        102,841       -5,01297
            616            616        105,171       -5,05567
            623            623        107,503       -5,05406
            630            630        109,834       -5,05719
            637            637        112,166       -5,05676
            644            644        114,497       -5,07371
            651            651        116,828       -5,10004
            658            658        119,158        -5,1327
            665            665        121,488       -5,17461
            672            672        123,818       -5,22322
            679            679        126,148       -5,27457
            686            686        128,478       -5,33682
            693            693        130,801       -5,55733
            700            700        133,107       -6,26258
            707            707        135,413       -6,97662
            714            714        137,725       -7,48723
            721            721        140,037       -7,99661
            728            728        142,336       -8,85388
            735            735        144,604       -10,5048
            742            742        146,866       -12,3027
            749            749        149,142       -13,6945
            756            756        151,468       -13,7585
            763            763        153,863        -12,064
            770            770        156,332       -8,51933
            777            777        158,727        -6,9008
            784            784        161,079        -6,3803
            791            791        163,422        -6,0941
            798            798        165,758       -5,98149
            805            805        168,091       -5,94813
            812            812        170,422       -5,94428
            819            819        172,753        -5,9531
            826            826        175,084       -5,96416
            833            833        177,415       -5,97706
            840            840        179,747       -5,98913
            847            847        182,078       -6,00245
            854            854        184,408       -6,01863
            861            861        186,739       -6,03973
            868            868         189,07       -6,06124
            875            875          191,4       -6,08312
            882            882        193,731       -6,10632
            889            889        196,061       -6,12937
            896            896        198,392       -6,15279
            903            903        198,464        -12,001
            910            910        196,504       -3,66315
            917            917        194,445        2,53815
            924            924        192,222        5,05917
            931            931        189,929        6,03141
            938            938        187,611        6,41612
            945            945        185,282        6,57427
            952            952         182,95         6,6388
            959            959        180,615        6,65899
            966            966         178,28        6,66248
            973            973        175,945        6,66032
            980            980        173,609        6,65132
            987            987        171,273        6,63327
            994            994        168,937        6,61339
           1001           1001          166,6        6,58526
           1008           1008        164,264        6,55399
           1015           1015        161,927        6,52279
           1022           1022        159,591        6,49162
           1029           1029        157,254        6,46027
           1036           1036        154,918        6,43102
           1043           1043        152,581        6,40562
           1050           1050        150,245        6,38651
           1057           1057        147,909        6,36862
           1064           1064        145,573        6,35387
           1071           1071        143,238        6,35026
           1078           1078        140,903         6,3615
           1085           1085        138,568         6,3729
           1092           1092        136,233        6,37889
           1099           1099        133,897        6,37169
           1106           1106        131,561        6,35599
           1113           1113        129,225        6,33524
           1120           1120        126,889        6,31695
           1127           1127        124,553        6,31074
           1134           1134        122,217        6,28609
           1141           1141        119,879        6,22664
           1148           1148        117,542         6,1856
           1155           1155        115,207        6,18426
           1162           1162        112,872        6,20556
           1169           1169        110,538        6,24164
           1176           1176        108,203        6,27066
           1183           1183        105,868        6,28512
           1190           1190        103,532        6,26148
           1197           1197        101,195        6,21608
           1204           1204        98,8588        6,18604
           1211           1211        96,5231        6,17909
           1218           1218        94,1877         6,1795
           1225           1225        91,8523         6,1851
           1232           1232        89,5169        6,18893
           1239           1239        87,1813        6,18543
           1246           1246        84,8455        6,17817
           1253           1253        82,5097        6,16908
           1260           1260        80,1738         6,1568
           1267           1267        77,8378        6,14034
           1274           1274         75,502        6,13092
           1281           1281        73,1664        6,12963
           1288           1288        70,8306        6,12284
           1295           1295         68,495        6,12123
           1302           1302        66,1593        6,11847
           1309           1309        63,8237        6,11673
           1316           1316        61,4879        6,10991
           1323           1323        59,1522        6,10398
           1330           1330        56,8166        6,10295
           1337           1337        54,4807        6,08529
           1344           1344        52,1448        6,06776
           1351           1351         49,809        6,05716
           1358           1358        47,4736        6,06097
           1365           1365        45,1381        6,05929
           1372           1372        42,8024        6,05021
           1379           1379        40,4665        6,03633
           1386           1386        38,1306        6,01612
           1393           1393        35,7939        5,96056
           1400           1400        33,4566        5,87199
           1407           1407        31,1183        5,73111
           1414           1414        28,7791        5,54252
           1421           1421        26,4394        5,32604
           1428           1428        24,0998        5,10238
           1435           1435        21,7605        4,88493
           1442           1442        19,4218        4,69088
           1449           1449        17,0841         4,5463
           1456           1456        14,7475        4,45876
           1463           1463         12,411        4,37101
           1470           1470        10,0749        4,29714
           1477           1477        7,73887        4,23224
           1484           1484         5,4031        4,17696
           1491           1491         3,0674         4,1236
           1498           1498       0,732017        4,08742
           1505           1505        -1,6032        4,06055
           1512           1512        -3,9384        4,03297
           1519           1519       -6,27363        4,00287
           1526           1526       -8,60857        3,99067
           1533           1533       -10,9436         3,9739
           1540           1540       -13,2785        3,96324
           1547           1547       -15,6133        3,95384
           1554           1554       -17,9481        3,95079
           1561           1561       -20,2829        3,94471
           1568           1568       -22,6177        3,93313
           1575           1575       -24,9525        3,92297
           1582           1582       -27,2872        3,92051
           1589           1589        -29,622        3,90101
           1596           1596       -31,9567        3,89859
           1603           1603       -34,2914          3,894
           1610           1610       -36,6262        3,86629
           1617           1617       -38,9607         3,8809
           1624           1624       -41,2953        3,87367
           1631           1631       -43,6299        3,87175
           1638           1638       -45,9644        3,87488
           1645           1645       -48,2989        3,88466
           1652           1652       -50,6332        3,90252
           1659           1659       -52,9676        3,92321
           1666           1666       -55,3019          3,952
           1673           1673       -57,6363        3,96934
           1680           1680       -59,9704        4,01759
           1687           1687       -62,3045        4,08202
           1694           1694       -64,6385        4,14869
           1701           1701       -66,9731        4,13676
           1708           1708       -69,3081        4,05903
           1715           1715       -71,6431        3,97007
           1722           1722       -73,9777        3,94073
           1729           1729        -76,313        3,78773
           1736           1736       -78,6452         4,1991
           1743           1743       -80,9851        3,08707
           1750           1750       -83,3209        2,71756
           1757           1757       -85,6557        2,54331
           1764           1764       -87,9901        2,43901
           1771           1771       -90,3244        2,36207
           1778           1778       -92,6585        2,31144
           1785           1785       -94,9926        2,25018
           1792           1792       -97,3266        2,20829
           1799           1799       -99,6606        2,16887
           1806           1806       -97,9935        2,17501
           1813           1813       -95,6598        2,13361
           1820           1820       -93,2954        10,9366
           1827           1827       -90,9633        9,86826
           1834           1834       -88,6532         3,3932
           1841           1841       -86,3346      -0,304929
           1848           1848        -84,009       -2,00084
           1855           1855       -81,6795       -2,68472
           1862           1862       -79,3483       -2,96521
           1869           1869       -77,0162       -3,06368
           1876           1876       -74,6839       -3,09576
           1883           1883       -72,3516       -3,12162
           1890           1890       -70,0192       -3,12787
           1897           1897       -67,6869       -3,15835
           1904           1904       -65,3548       -3,19862
           1911           1911       -63,0228       -3,25622
           1918           1918       -60,6907       -3,30463
           1925           1925       -58,3586       -3,33547
           1932           1932       -56,0262       -3,32596
           1939           1939       -53,6932        -3,2521
           1946           1946       -51,3605       -3,20607
           1953           1953       -49,0281        -3,2034
           1960           1960        -46,696         -3,231
           1967           1967       -44,3639        -3,2465
           1974           1974       -42,0317       -3,25802
           1981           1981       -39,6995       -3,26998
           1988           1988       -37,3673       -3,27494
           1995           1995        -35,035       -3,27797
           2002           2002       -32,7029       -3,28944
           2009           2009       -30,3708        -3,3024
           2016           2016       -28,0387       -3,31337
           2023           2023       -25,7066       -3,32565
           2030           2030       -23,3745       -3,33562
           2037           2037       -21,0425       -3,34691
           2044           2044       -18,7105       -3,35715
           2051           2051       -16,3785       -3,37322
           2058           2058       -14,0465       -3,38614
           2065           2065       -11,7146       -3,39999
           2072           2072       -9,38273        -3,4172
           2079           2079       -7,05085       -3,43308
           2086           2086       -4,71897        -3,4476
           2093           2093       -2,38713       -3,46419
           2100           2100     -0,0552389       -3,47729
           2107           2107        2,27667       -3,48841
           2114           2114        4,60854       -3,50144
           2121           2121        6,94044       -3,51225
           2128           2128        9,27221       -3,52998
           2135           2135        11,6038        -3,5565
           2142           2142        13,9352        -3,5929
           2149           2149        16,2665        -3,6369
           2156           2156        18,5976       -3,68639
           2163           2163        20,9284       -3,74847
           2170           2170        23,2589       -3,82278
           2177           2177        25,5889       -3,92117
           2184           2184        27,9182       -4,05514
           2191           2191        30,2465       -4,23045
           2198           2198        32,5735       -4,45987
           2205           2205        34,8992       -4,74434
           2212           2212        37,2242       -5,04837
           2219           2219        39,5498       -5,31835
           2226           2226        41,8775       -5,48751
           2233           2233        44,2076       -5,54448
           2240           2240        46,5394       -5,52542
           2247           2247        48,8713       -5,50097
           2254           2254        51,2029       -5,49112
           2261           2261        53,5343       -5,49086
           2268           2268        55,8655       -5,49487
           2275           2275        58,1968       -5,50093
           2282           2282        60,5281       -5,50134
           2289           2289        62,8594       -5,50053
           2296           2296        65,1907       -5,49858
           2303           2303        67,5221       -5,49748
           2310           2310        69,8535        -5,4939
           2317           2317        72,1848       -5,49366
           2324           2324        74,5161       -5,49615
           2331           2331        76,8473       -5,49888
           2338           2338        79,1786       -5,50212
           2345           2345        81,5099        -5,5039
           2352           2352        83,8413       -5,50254
           2359           2359         86,173       -5,49212
           2366           2366        88,5051        -5,4647
           2373           2373        90,8386       -5,39611
           2380           2380        93,1736       -5,27718
           2387           2387        95,5119       -5,05487
           2394           2394        97,8553       -4,67235
           2401           2401        100,206       -4,07201
           2408           2408        102,564       -3,24747
           2415           2415        104,926       -2,30086
           2422           2422        107,287       -1,42419
           2429           2429        109,639      -0,859638
           2436           2436        111,976      -0,725976
           2443           2443        114,299       -1,04136
           2450           2450        116,612       -1,62607
           2457           2457        118,922       -2,29943
           2464           2464        121,232       -2,95606
           2471           2471        123,543       -3,55981
           2478           2478        125,856       -4,11428
           2485           2485        128,169       -4,63289
           2492           2492        130,483       -5,13495
           2499           2499        132,797       -5,63895
           2506           2506        135,107        -6,2339
           2513           2513        137,402       -7,21546
           2520           2520        139,667       -8,98912
           2527           2527        141,929       -10,8194
           2534           2534         144,25       -11,0775
           2541           2541        146,597       -10,6044
           2548           2548          148,9       -11,3132
           2555           2555        151,213       -11,7459
           2562           2562        153,644       -9,15179
           2569           2569        156,066       -6,81626
           2576           2576         158,43       -5,98173
           2583           2583        160,771       -5,74652
           2590           2590        163,107       -5,63824
           2597           2597         165,44       -5,60185
           2604           2604        167,772       -5,59078
           2611           2611        170,104       -5,58839
           2618           2618        172,435       -5,59158
           2625           2625        174,767       -5,59931
           2632           2632        177,098       -5,60803
           2639           2639        179,429       -5,62022
           2646           2646         181,76       -5,63288
           2653           2653        184,091       -5,64751
           2660           2660        186,422       -5,66285
           2667           2667        188,753       -5,68008
           2674           2674        191,085       -5,68305
           2681           2681        193,416       -5,69318
           2688           2688        195,747       -5,70692
           2695           2695        198,078       -5,72083

Results:
  Step	-30,15e-03 Wg^-1
   	-0,36 mW
  Onset	-66,70 °C
  Inflect. Pt.	-62,02 °C
  Midpoint	-61,42 °C

  Step	-50,83e-03 Wg^-1
   	-0,61 mW
  Onset	35,31 °C
  Inflect. Pt.	42,57 °C
  Midpoint	39,54 °C

  Integral	-349,35 mJ
    normalized	-29,11 Jg^-1
  Onset	138,45 °C
  Peak	150,13 °C

  Integral	-4,40 mJ
    normalized	-0,37 Jg^-1
  Onset	-67,35 °C
  Peak	-58,03 °C

  Step	-0,15 Wg^-1
   	-1,77 mW
  Onset	27,58 °C
  Inflect. Pt.	35,90 °C
  Midpoint	33,18 °C

  Integral	15,74 mJ
    normalized	1,31 Jg^-1
  Onset	96,99 °C
  Peak	150,54 °C

Sample:
  Ruben_CUTESTEACEPIA30, 12,0000 mg

________________________________________________________________________________
Not signed                                                         STARe SW 9.30