File: DSC/PLA-4-20.txt
Ruben_CutestEACPLA20                                            16.11.2021 17:48
________________________________________________________________________________

Curve Name:
  Ruben_CutestEACPLA20, 16.11.2021 17:42:18
  Performed 16.11.2021 17:42:17
Curve Values:
          Index              t             Ts          Value
                           [s]           [°C]           [mW]
              0              0       -99,9943        2,07278
              7              7       -97,6441        7,49112
             14             14       -95,3344      -0,327229
             21             21       -93,0142       -4,04316
             28             28       -90,6871       -5,44485
             35             35       -88,3571       -5,91413
             42             42       -86,0255       -5,97719
             49             49       -83,6935        -5,9262
             56             56       -81,3613       -5,83393
             63             63        -79,029       -5,72747
             70             70       -76,6968       -5,64917
             77             77       -74,3646       -5,56494
             84             84       -72,0323       -5,48371
             91             91       -69,7001       -5,41672
             98             98        -67,368        -5,3773
            105            105        -65,036       -5,34178
            112            112       -62,7041       -5,32687
            119            119       -60,3723       -5,32341
            126            126       -58,0407       -5,33955
            133            133       -55,7091       -5,36689
            140            140       -53,3777       -5,39971
            147            147       -51,0461       -5,41574
            154            154       -48,7145       -5,41856
            161            161       -46,3828        -5,4109
            168            168       -44,0509       -5,38861
            175            175        -41,719        -5,3597
            182            182       -39,3871       -5,32929
            189            189       -37,0552       -5,30731
            196            196       -34,7234       -5,28854
            203            203       -32,3917       -5,27958
            210            210         -30,06       -5,26993
            217            217       -27,7284       -5,26777
            224            224       -25,3968       -5,26038
            231            231       -23,0652       -5,25551
            238            238       -20,7336       -5,24862
            245            245        -18,402       -5,24193
            252            252       -16,0704       -5,23857
            259            259       -13,7389       -5,23875
            266            266       -11,4074       -5,23622
            273            273       -9,07599       -5,23886
            280            280       -6,74453       -5,23869
            287            287       -4,41295       -5,23084
            294            294       -2,08135        -5,2221
            301            301       0,250206       -5,21612
            308            308        2,58176       -5,21094
            315            315        4,91328       -5,20771
            322            322        7,24478       -5,20607
            329            329        9,57606       -5,21694
            336            336        11,9073       -5,22765
            343            343        14,2386         -5,239
            350            350        16,5698       -5,25176
            357            357         18,901        -5,2654
            364            364        21,2322       -5,28075
            371            371        23,5633       -5,29826
            378            378        25,8944       -5,31629
            385            385        28,2252        -5,3446
            392            392         30,556       -5,37802
            399            399        32,8865       -5,42035
            406            406        35,2167       -5,47692
            413            413        37,5464        -5,5541
            420            420        39,8752       -5,66689
            427            427        42,2034       -5,80903
            434            434         44,531       -5,96858
            441            441        46,8593       -6,09451
            448            448        49,1893       -6,14186
            455            455        51,5205       -6,14139
            462            462        53,8516       -6,14035
            469            469        56,1818       -6,17965
            476            476        58,5111       -6,25147
            483            483        60,8406       -6,31608
            490            490         63,171       -6,33778
            497            497        65,5019       -6,33919
            504            504        67,8325       -6,35586
            511            511        70,1629       -6,37916
            518            518        72,4931       -6,40677
            525            525        74,8233       -6,43592
            532            532        77,1535       -6,46652
            539            539        79,4835       -6,49934
            546            546         81,813       -6,55135
            553            553        84,1434        -6,5724
            560            560        86,4737       -6,59654
            567            567        88,8039       -6,62229
            574            574        91,1342        -6,6472
            581            581        93,4643       -6,67485
            588            588        95,7944       -6,70368
            595            595        98,1246       -6,73099
            602            602        100,455       -6,75633
            609            609        102,785       -6,77899
            616            616        105,115       -6,80322
            623            623        107,445       -6,82711
            630            630        109,776       -6,85074
            637            637        112,106       -6,87546
            644            644        114,436       -6,90824
            651            651        116,765       -6,95772
            658            658        119,094       -7,02317
            665            665        121,422       -7,09477
            672            672        123,751       -7,16955
            679            679        126,079       -7,24914
            686            686        128,406       -7,35104
            693            693        130,732       -7,50201
            700            700        133,051       -7,81832
            707            707        135,362       -8,36884
            714            714        137,666       -9,09654
            721            721        139,968       -9,86776
            728            728        142,269       -10,6403
            735            735        144,563       -11,5945
            742            742        146,837       -13,0574
            749            749         149,11       -14,5314
            756            756         151,41       -15,2698
            763            763        153,785       -14,0757
            770            770        156,238       -10,9197
            777            777        158,637       -9,17248
            784            784        161,009       -8,13768
            791            791        163,356       -7,72923
            798            798        165,693       -7,58052
            805            805        168,026       -7,52555
            812            812        170,358       -7,50683
            819            819        172,689       -7,49618
            826            826        175,021       -7,48931
            833            833        177,352       -7,48782
            840            840        179,683       -7,48527
            847            847        182,014       -7,48446
            854            854        184,345       -7,48764
            861            861        186,676       -7,49417
            868            868        189,007       -7,50405
            875            875        191,337       -7,51894
            882            882        193,668        -7,5284
            889            889        195,999       -7,53366
            896            896         198,33       -7,54175
            903            903        198,523        -10,676
            910            910        196,607       -1,33427
            917            917        194,531        4,46981
            924            924        192,298        6,79552
            931            931        190,001        7,68159
            938            938         187,68        8,01058
            945            945        185,349        8,13164
            952            952        183,015        8,16916
            959            959         180,68        8,17111
            966            966        178,343        8,15998
            973            973        176,007        8,14425
            980            980         173,67         8,1246
            987            987        171,334        8,10349
            994            994        168,997        8,08037
           1001           1001         166,66        8,05539
           1008           1008        164,323        8,03069
           1015           1015        161,987         8,0073
           1022           1022         159,65        7,98131
           1029           1029        157,313        7,95853
           1036           1036        154,976        7,93382
           1043           1043        152,639        7,91121
           1050           1050        150,303        7,89196
           1057           1057        147,966        7,87205
           1064           1064         145,63        7,85234
           1071           1071        143,294        7,84199
           1078           1078        140,957        7,83137
           1085           1085        138,621        7,82635
           1092           1092        136,286        7,84486
           1099           1099        133,951        7,86223
           1106           1106        131,615        7,85724
           1113           1113        129,278        7,84867
           1120           1120        126,943        7,85617
           1127           1127        124,607        7,87101
           1134           1134        122,272        7,88626
           1141           1141        119,936        7,89451
           1148           1148        117,601        7,91918
           1155           1155        115,266        7,93999
           1162           1162        112,929        7,91344
           1169           1169        110,592        7,90115
           1176           1176        108,256        7,88896
           1183           1183        105,919        7,85592
           1190           1190        103,582        7,84003
           1197           1197        101,246        7,82269
           1204           1204        98,9091        7,80463
           1211           1211        96,5726        7,78968
           1218           1218        94,2362        7,77676
           1225           1225        91,8997        7,76435
           1232           1232        89,5633        7,75383
           1239           1239        87,2269        7,74433
           1246           1246        84,8906        7,73716
           1253           1253        82,5544        7,73102
           1260           1260         80,218        7,72302
           1267           1267        77,8816        7,71426
           1274           1274        75,5454        7,70847
           1281           1281        73,2091        7,70389
           1288           1288        70,8729        7,70111
           1295           1295        68,5368        7,70329
           1302           1302        66,2006        7,70355
           1309           1309        63,8644        7,70169
           1316           1316        61,5281        7,69844
           1323           1323        59,1918        7,69246
           1330           1330        56,8555        7,68503
           1337           1337        54,5192        7,67415
           1344           1344        52,1827        7,65961
           1351           1351        49,8461        7,63358
           1358           1358         47,509        7,59002
           1365           1365        45,1705        7,48294
           1372           1372        42,8303        7,29713
           1379           1379        40,4888        7,04493
           1386           1386        38,1468         6,7631
           1393           1393        35,8052        6,48868
           1400           1400        33,4663        6,33464
           1407           1407         31,126        6,10551
           1414           1414        28,7875        5,95617
           1421           1421        26,4499        5,85236
           1428           1428        24,1128        5,76576
           1435           1435        21,7765        5,72028
           1442           1442         19,441        5,71396
           1449           1449        17,1058        5,72017
           1456           1456        14,7704        5,72014
           1463           1463         12,435        5,72127
           1470           1470        10,0987         5,6657
           1477           1477        7,76246         5,6144
           1484           1484        5,42655        5,58063
           1491           1491        3,09087        5,55907
           1498           1498       0,755239        5,53982
           1505           1505       -1,58038        5,52023
           1512           1512       -3,91589        5,50683
           1519           1519       -6,25113        5,51103
           1526           1526       -8,58644        5,51094
           1533           1533       -10,9217        5,51574
           1540           1540       -13,2569        5,52365
           1547           1547       -15,5921         5,5302
           1554           1554       -17,9272        5,54024
           1561           1561       -20,2623        5,55133
           1568           1568       -22,5974         5,5659
           1575           1575       -24,9324        5,58385
           1582           1582       -27,2674        5,59927
           1589           1589       -29,6024        5,61825
           1596           1596       -31,9374        5,63594
           1603           1603       -34,2724        5,65505
           1610           1610       -36,6074        5,67264
           1617           1617       -38,9423        5,69808
           1624           1624       -41,2772        5,71999
           1631           1631       -43,6121        5,75084
           1638           1638        -45,947        5,77654
           1645           1645       -48,2818        5,80604
           1652           1652       -50,6167        5,83965
           1659           1659       -52,9516         5,8637
           1666           1666       -55,2864        5,89181
           1673           1673       -57,6214        5,90325
           1680           1680       -59,9564        5,91591
           1687           1687       -62,2915        5,92257
           1694           1694       -64,6265        5,91864
           1701           1701       -66,9621        5,83316
           1708           1708        -69,298        5,68542
           1715           1715       -71,6339         5,5165
           1722           1722       -73,9696        5,37648
           1729           1729       -76,3047        5,31585
           1736           1736       -78,6391         5,4003
           1743           1743       -80,9751         5,1447
           1750           1750       -83,3103        5,03092
           1757           1757       -85,6454        4,93946
           1764           1764       -87,9802        4,87861
           1771           1771       -90,3151        4,81517
           1778           1778       -92,6498        4,75855
           1785           1785       -94,9845        4,72058
           1792           1792       -97,3191        4,68164
           1799           1799       -99,6537        4,64661
           1806           1806        -97,986        4,69701
           1813           1813       -95,6516        4,67195
           1820           1820       -93,2987        9,98824
           1827           1827       -90,9844         4,1879
           1834           1834       -88,6735       -1,72776
           1841           1841       -86,3521       -4,43719
           1848           1848       -84,0247        -5,5022
           1855           1855       -81,6945       -5,83838
           1862           1862        -79,363       -5,89648
           1869           1869       -77,0311       -5,86291
           1876           1876        -74,699       -5,80109
           1883           1883       -72,3669       -5,74018
           1890           1890       -70,0348       -5,68186
           1897           1897       -67,7028       -5,63775
           1904           1904       -65,3709       -5,60874
           1911           1911       -63,0392        -5,6094
           1918           1918       -60,7075       -5,60294
           1925           1925       -58,3752       -5,52414
           1932           1932       -56,0426       -5,41729
           1939           1939       -53,7109       -5,40685
           1946           1946       -51,3797       -5,46707
           1953           1953       -49,0485       -5,52289
           1960           1960       -46,7172        -5,5527
           1967           1967       -44,3856       -5,55336
           1974           1974       -42,0537       -5,52883
           1981           1981       -39,7219        -5,4974
           1988           1988         -37,39       -5,46625
           1995           1995       -35,0582       -5,44153
           2002           2002       -32,7264       -5,42415
           2009           2009       -30,3947       -5,41334
           2016           2016       -28,0631       -5,40684
           2023           2023       -25,7315       -5,40011
           2030           2030       -23,3999       -5,38778
           2037           2037       -21,0683       -5,37547
           2044           2044       -18,7366       -5,35827
           2051           2051       -16,4049        -5,3466
           2058           2058       -14,0733       -5,33692
           2065           2065       -11,7418       -5,32888
           2072           2072       -9,41041       -5,33215
           2079           2079       -7,07907       -5,33829
           2086           2086       -4,74783       -5,34989
           2093           2093       -2,41649       -5,35515
           2100           2100      -0,085018       -5,35184
           2107           2107        2,24642       -5,35051
           2114           2114        4,57789       -5,34778
           2121           2121        6,90932       -5,34702
           2128           2128        9,24066       -5,35184
           2135           2135        11,5719       -5,35941
           2142           2142        13,9032       -5,36983
           2149           2149        16,2344       -5,37882
           2156           2156        18,5656       -5,38859
           2163           2163        20,8969       -5,39715
           2170           2170         23,228       -5,41152
           2177           2177         25,559       -5,43305
           2184           2184        27,8898       -5,45983
           2191           2191        30,2205       -5,49664
           2198           2198         32,551       -5,53835
           2205           2205        34,8812       -5,59022
           2212           2212        37,2111       -5,65576
           2219           2219        39,5403       -5,75498
           2226           2226        41,8684       -5,89667
           2233           2233        44,1946       -6,11434
           2240           2240        46,5184       -6,43579
           2247           2247        48,8396       -6,85733
           2254           2254        51,1604       -7,28058
           2261           2261         53,485       -7,53446
           2268           2268         55,815       -7,55977
           2275           2275        58,1472       -7,49786
           2282           2282        60,4788       -7,45722
           2289           2289        62,8098       -7,44086
           2296           2296        65,1404       -7,43981
           2303           2303        67,4709       -7,44186
           2310           2310        69,8014       -7,44605
           2317           2317        72,1319       -7,44943
           2324           2324        74,4625        -7,4511
           2331           2331        76,7931       -7,45091
           2338           2338        79,1238       -7,44977
           2345           2345        81,4546       -7,44554
           2352           2352        83,7854       -7,44073
           2359           2359        86,1162       -7,43594
           2366           2366         88,447       -7,43005
           2373           2373        90,7779       -7,42573
           2380           2380        93,1087       -7,42373
           2387           2387        95,4394       -7,42199
           2394           2394        97,7702       -7,41975
           2401           2401        100,101       -7,41708
           2408           2408        102,432       -7,41366
           2415           2415        104,763       -7,40833
           2422           2422        107,094       -7,39849
           2429           2429        109,425       -7,39611
           2436           2436        111,756       -7,38766
           2443           2443        114,087       -7,37417
           2450           2450        116,419       -7,36055
           2457           2457         118,75         -7,351
           2464           2464        121,081       -7,34217
           2471           2471        123,412       -7,33555
           2478           2478        125,743       -7,33128
           2485           2485        128,074       -7,33003
           2492           2492        130,405       -7,33246
           2499           2499        132,736       -7,33793
           2506           2506        135,066       -7,34692
           2513           2513        137,397       -7,35979
           2520           2520        139,727       -7,38013
           2527           2527        142,057       -7,40172
           2534           2534        144,387       -7,43231
           2541           2541        146,715       -7,51449
           2548           2548        149,042       -7,60699
           2555           2555        151,372       -7,62914
           2562           2562        153,706       -7,55317
           2569           2569         156,04       -7,47907
           2576           2576         158,37       -7,49953
           2583           2583        160,701       -7,50368
           2590           2590        163,033       -7,47973
           2597           2597        165,364       -7,47103
           2604           2604        167,695        -7,4692
           2611           2611        170,026        -7,4701
           2618           2618        172,357       -7,47236
           2625           2625        174,688       -7,47679
           2632           2632        177,019        -7,4811
           2639           2639         179,35       -7,48668
           2646           2646        181,681       -7,49298
           2653           2653        184,012        -7,5014
           2660           2660        186,343       -7,50944
           2667           2667        188,673       -7,51634
           2674           2674        191,004       -7,52289
           2681           2681        193,335       -7,52921
           2688           2688        195,666       -7,53615
           2695           2695        197,997       -7,54231

Results:
  Step	-70,09e-03 Wg^-1
   	-0,74 mW
  Onset	36,08 °C
  Inflect. Pt.	43,20 °C
  Midpoint	40,68 °C

  Integral	-353,80 mJ
    normalized	-33,38 Jg^-1
  Onset	138,49 °C
  Peak	151,08 °C

  Step	-18,21e-03 Wg^-1
   	-0,19 mW
  Onset	-54,14 °C
  Inflect. Pt.	-51,71 °C
  Midpoint	-52,33 °C

  Step	-0,16 Wg^-1
   	-1,72 mW
  Onset	42,81 °C
  Inflect. Pt.	48,84 °C
  Midpoint	46,72 °C

  Integral	-3,12 mJ
    normalized	-0,29 Jg^-1
  Onset	144,42 °C
  Peak	150,37 °C

Sample:
  Ruben_CutestEACPLA20, 10,6000 mg

________________________________________________________________________________
Not signed                                                         STARe SW 9.30