File: DSC/PLA-3-40.txt
Grazia_DSC_GR018                                                18.11.2022 16:24
________________________________________________________________________________

Curve Name:
  Grazia_DSC_GR018, 18.11.2022 16:15:13
  Performed 18.11.2022 16:15:13
Curve Values:
          Index              t             Ts          Value
                           [s]           [°C]           [mW]
              0              0        -79,994         1,1387
              4              4        -78,651        2,81231
              8              8        -77,326        1,18905
             12             12        -76,011       -1,84853
             16             16        -74,689       -3,56882
             20             20        -73,362       -4,50242
             24             24        -72,033       -5,05095
             28             28        -70,703       -5,38077
             32             32        -69,372       -5,57544
             36             36        -68,040       -5,69055
             40             40        -66,708       -5,75073
             44             44        -65,376       -5,76322
             48             48        -64,044       -5,76048
             52             52        -62,711       -5,74032
             56             56        -61,379       -5,70772
             60             60        -60,046       -5,66761
             64             64        -58,713       -5,61835
             68             68        -57,381       -5,57557
             72             72        -56,048       -5,52405
             76             76        -54,715       -5,48035
             80             80        -53,383       -5,44775
             84             84        -52,050       -5,41416
             88             88        -50,718       -5,38386
             92             92        -49,385       -5,35896
             96             96        -48,053       -5,33467
            100            100        -46,720       -5,31667
            104            104        -45,388       -5,30088
            108            108        -44,055       -5,28386
            112            112        -42,723       -5,26912
            116            116        -41,390       -5,25303
            120            120        -40,058        -5,2358
            124            124        -38,725       -5,22461
            128            128        -37,393       -5,21403
            132            132        -36,061       -5,20467
            136            136        -34,728       -5,19935
            140            140        -33,396       -5,19271
            144            144        -32,064       -5,19143
            148            148        -30,731       -5,19134
            152            152        -29,399       -5,19227
            156            156        -28,067        -5,1948
            160            160        -26,735       -5,19936
            164            164        -25,403       -5,20126
            168            168        -24,070       -5,19982
            172            172        -22,738        -5,1921
            176            176        -21,406       -5,18036
            180            180        -20,073       -5,16284
            184            184        -18,741       -5,14184
            188            188        -17,408       -5,12346
            192            192        -16,076       -5,10708
            196            196        -14,743       -5,09333
            200            200        -13,411       -5,08145
            204            204        -12,079       -5,07244
            208            208        -10,746       -5,06462
            212            212         -9,414       -5,05943
            216            216         -8,082       -5,05563
            220            220         -6,750       -5,05116
            224            224         -5,417       -5,04522
            228            228         -4,085       -5,03815
            232            232         -2,753       -5,02827
            236            236         -1,420        -5,0158
            240            240    -87,819e-03       -5,00392
            244            244          1,245        -4,9951
            248            248          2,577       -4,98799
            252            252          3,909       -4,98327
            256            256          5,241       -4,98116
            260            260          6,574       -4,98263
            264            264          7,906       -4,98603
            268            268          9,238       -4,99058
            272            272         10,570       -4,99629
            276            276         11,902       -5,00307
            280            280         13,234       -5,01031
            284            284         14,566       -5,01632
            288            288         15,898       -5,02267
            292            292         17,230       -5,02944
            296            296         18,562       -5,03724
            300            300         19,894       -5,04541
            304            304         21,226       -5,05516
            308            308         22,558        -5,0658
            312            312         23,890       -5,07673
            316            316         25,222       -5,08817
            320            320         26,554       -5,10032
            324            324         27,886       -5,11484
            328            328         29,218       -5,13056
            332            332         30,550       -5,14869
            336            336         31,881        -5,1678
            340            340         33,213       -5,18853
            344            344         34,545       -5,21123
            348            348         35,876       -5,23673
            352            352         37,208       -5,26498
            356            356         38,539       -5,29434
            360            360         39,870       -5,32561
            364            364         41,202        -5,3582
            368            368         42,533       -5,39186
            372            372         43,864       -5,42759
            376            376         45,195       -5,46625
            380            380         46,526       -5,50775
            384            384         47,858       -5,54867
            388            388         49,189       -5,58634
            392            392         50,520       -5,61555
            396            396         51,852       -5,63249
            400            400         53,183       -5,64432
            404            404         54,515       -5,65159
            408            408         55,847       -5,65513
            412            412         57,179       -5,65731
            416            416         58,511       -5,65941
            420            420         59,843       -5,66118
            424            424         61,175       -5,66315
            428            428         62,507       -5,66571
            432            432         63,839       -5,66918
            436            436         65,171        -5,6745
            440            440         66,503        -5,6814
            444            444         67,834       -5,68944
            448            448         69,166       -5,69919
            452            452         70,498       -5,71068
            456            456         71,829       -5,72417
            460            460         73,161       -5,73986
            464            464         74,492       -5,75675
            468            468         75,824       -5,77432
            472            472         77,155       -5,79168
            476            476         78,487        -5,8088
            480            480         79,818       -5,82545
            484            484         81,150       -5,84014
            488            488         82,481        -5,8534
            492            492         83,813       -5,86467
            496            496         85,145       -5,87177
            500            500         86,477       -5,87764
            504            504         87,809       -5,88325
            508            508         89,140       -5,88948
            512            512         90,472       -5,89607
            516            516         91,804       -5,90248
            520            520         93,136       -5,90947
            524            524         94,467       -5,91794
            528            528         95,799       -5,92787
            532            532         97,131       -5,93828
            536            536         98,462       -5,95089
            540            540         99,794       -5,96497
            544            544        101,125       -5,98117
            548            548        102,457       -5,99888
            552            552        103,788        -6,0175
            556            556        105,119       -6,03813
            560            560        106,451       -6,06162
            564            564        107,782       -6,08754
            568            568        109,113       -6,11449
            572            572        110,444       -6,14233
            576            576        111,775       -6,17205
            580            580        113,106       -6,20361
            584            584        114,436       -6,23835
            588            588        115,767       -6,27602
            592            592        117,097       -6,31687
            596            596        118,428       -6,36106
            600            600        119,758       -6,40559
            604            604        121,088       -6,45156
            608            608        122,418        -6,5037
            612            612        123,748       -6,56083
            616            616        125,077       -6,62864
            620            620        126,406       -6,70779
            624            624        127,735       -6,79362
            628            628        129,063       -6,89814
            632            632        130,389       -7,02654
            636            636        131,715       -7,18841
            640            640        133,039       -7,39078
            644            644        134,361       -7,62859
            648            648        135,682       -7,89758
            652            652        137,002       -8,18805
            656            656        138,321       -8,49707
            660            660        139,640       -8,81531
            664            664        140,957       -9,16612
            668            668        142,270       -9,61525
            672            672        143,581       -10,0931
            676            676        144,907       -10,2331
            680            680        146,260       -9,70685
            684            684        147,625       -8,89674
            688            688        148,995       -7,98934
            692            692        150,361       -7,18577
            696            696        151,716       -6,64357
            700            700        153,062       -6,32753
            704            704        154,402       -6,15204
            708            708        155,738        -6,0537
            712            712        157,073       -5,99688
            716            716        158,406       -5,96459
            720            720        159,739       -5,94514
            724            724        161,072       -5,93406
            728            728        162,404       -5,92671
            732            732        163,737       -5,92289
            736            736        165,069        -5,9204
            740            740        166,401       -5,91699
            744            744        167,734       -5,91326
            748            748        169,066       -5,90895
            752            752        170,398       -5,90557
            756            756        171,731       -5,90277
            760            760        173,063       -5,90134
            764            764        174,395       -5,90278
            768            768        175,729       -5,87044
            772            772        177,063       -5,82902
            776            776        178,397       -5,79595
            780            780        179,730       -5,77385
            784            784        181,063       -5,75965
            788            788        182,396       -5,74955
            792            792        183,728       -5,74207
            796            796        185,061       -5,73672
            800            800        186,393       -5,73278
            804            804        187,726        -5,7302
            808            808        189,058       -5,72854
            812            812        190,390        -5,7279
            816            816        191,723       -5,72802
            820            820        193,055        -5,7291
            824            824        194,387       -5,73025
            828            828        195,719       -5,73166
            832            832        197,051       -5,73539
            836            836        198,383       -5,74293
            840            840        199,682       -6,42787
            844            844        198,382       -5,77672
            848            848        197,265       -1,39636
            852            852        196,096        1,95916
            856            856        194,855        3,85682
            860            860        193,570        4,86812
            864            864        192,262        5,40257
            868            868        190,941        5,68065
            872            872        189,613        5,82745
            876            876        188,283        5,90371
            880            880        186,950          5,942
            884            884        185,617        5,96154
            888            888        184,282        5,96812
            892            892        182,948        5,96841
            896            896        181,613        5,96592
            900            900        180,279        5,96172
            904            904        178,944        5,95627
            908            908        177,609        5,94914
            912            912        176,274        5,94112
            916            916        174,940        5,93394
            920            920        173,605        5,92742
            924            924        172,270        5,92046
            928            928        170,935        5,91305
            932            932        169,600        5,90513
            936            936        168,266        5,89615
            940            940        166,931        5,88653
            944            944        165,596        5,87707
            948            948        164,261        5,86848
            952            952        162,926        5,85959
            956            956        161,591        5,84975
            960            960        160,256        5,83996
            964            964        158,921        5,83018
            968            968        157,586        5,81958
            972            972        156,251        5,80843
            976            976        154,917        5,79788
            980            980        153,582        5,78857
            984            984        152,247        5,78069
            988            988        150,912        5,77346
            992            992        149,577        5,76606
            996            996        148,242        5,75906
           1000           1000        146,908        5,75287
           1004           1004        145,573        5,74662
           1008           1008        144,238        5,73999
           1012           1012        142,903        5,73285
           1016           1016        141,569        5,72571
           1020           1020        140,234        5,71918
           1024           1024        138,899        5,71394
           1028           1028        137,564        5,71022
           1032           1032        136,230        5,70731
           1036           1036        134,895         5,7039
           1040           1040        133,561        5,69909
           1044           1044        132,226        5,69411
           1048           1048        130,891        5,69096
           1052           1052        129,557        5,69398
           1056           1056        128,222        5,69621
           1060           1060        126,888        5,69824
           1064           1064        125,554        5,70168
           1068           1068        124,219        5,70524
           1072           1072        122,885        5,70725
           1076           1076        121,550        5,70827
           1080           1080        120,216         5,7103
           1084           1084        118,881        5,70922
           1088           1088        117,546        5,69654
           1092           1092        116,211          5,684
           1096           1096        114,876         5,6785
           1100           1100        113,542        5,67331
           1104           1104        112,207        5,67312
           1108           1108        110,873        5,68085
           1112           1112        109,539        5,69333
           1116           1116        108,205        5,70679
           1120           1120        106,871        5,72065
           1124           1124        105,536        5,73434
           1128           1128        104,202        5,74596
           1132           1132        102,868         5,7554
           1136           1136        101,534        5,76206
           1140           1140        100,199        5,76348
           1144           1144         98,864        5,75923
           1148           1148         97,530        5,75727
           1152           1152         96,195        5,75651
           1156           1156         94,860        5,74678
           1160           1160         93,525        5,73486
           1164           1164         92,190        5,72302
           1168           1168         90,855        5,71249
           1172           1172         89,520        5,70318
           1176           1176         88,185        5,69394
           1180           1180         86,850        5,68457
           1184           1184         85,516        5,67635
           1188           1188         84,181        5,67024
           1192           1192         82,846        5,66483
           1196           1196         81,511        5,65941
           1200           1200         80,176        5,65539
           1204           1204         78,842         5,6524
           1208           1208         77,507        5,65003
           1212           1212         76,172         5,6479
           1216           1216         74,838         5,6459
           1220           1220         73,503        5,64368
           1224           1224         72,168        5,64085
           1228           1228         70,833        5,63809
           1232           1232         69,499        5,63672
           1236           1236         68,164        5,63557
           1240           1240         66,829        5,63383
           1244           1244         65,495        5,63194
           1248           1248         64,160        5,63031
           1252           1252         62,825        5,62898
           1256           1256         61,491        5,62781
           1260           1260         60,156        5,62642
           1264           1264         58,821        5,62491
           1268           1268         57,487        5,62565
           1272           1272         56,152        5,62731
           1276           1276         54,818         5,6282
           1280           1280         53,483        5,62471
           1284           1284         52,148        5,62046
           1288           1288         50,813        5,61529
           1292           1292         49,479        5,60605
           1296           1296         48,144        5,60069
           1300           1300         46,809        5,59673
           1304           1304         45,474        5,58393
           1308           1308         44,139        5,56292
           1312           1312         42,804         5,5377
           1316           1316         41,468        5,50487
           1320           1320         40,133        5,45659
           1324           1324         38,797        5,39527
           1328           1328         37,461         5,3326
           1332           1332         36,124        5,26419
           1336           1336         34,788        5,19059
           1340           1340         33,452        5,11539
           1344           1344         32,116        5,04227
           1348           1348         30,780        4,97404
           1352           1352         29,444        4,91367
           1356           1356         28,108        4,85936
           1360           1360         26,773        4,80643
           1364           1364         25,437        4,76484
           1368           1368         24,102         4,7295
           1372           1372         22,767        4,69659
           1376           1376         21,432        4,66609
           1380           1380         20,097         4,6412
           1384           1384         18,762         4,6216
           1388           1388         17,428        4,60554
           1392           1392         16,093        4,59251
           1396           1396         14,758        4,58231
           1400           1400         13,424        4,57359
           1404           1404         12,089         4,5639
           1408           1408         10,755         4,5535
           1412           1412          9,420        4,54366
           1416           1416          8,086        4,53563
           1420           1420          6,751        4,52876
           1424           1424          5,417        4,52202
           1428           1428          4,082        4,51639
           1432           1432          2,748        4,51004
           1436           1436          1,413        4,50556
           1440           1440     79,033e-03        4,50329
           1444           1444         -1,255        4,50281
           1448           1448         -2,590        4,50372
           1452           1452         -3,924        4,50581
           1456           1456         -5,258         4,5113
           1460           1460         -6,592        4,51865
           1464           1464         -7,927        4,52647
           1468           1468         -9,261        4,53558
           1472           1472        -10,595        4,54608
           1476           1476        -11,929        4,55898
           1480           1480        -13,263         4,5745
           1484           1484        -14,597        4,59036
           1488           1488        -15,932        4,60954
           1492           1492        -17,265        4,63836
           1496           1496        -18,599        4,66677
           1500           1500        -19,933        4,69502
           1504           1504        -21,267        4,72259
           1508           1508        -22,601         4,7491
           1512           1512        -23,935        4,77094
           1516           1516        -25,269        4,79026
           1520           1520        -26,604        4,80768
           1524           1524        -27,938        4,82235
           1528           1528        -29,272        4,83666
           1532           1532        -30,606        4,84663
           1536           1536        -31,940        4,85385
           1540           1540        -33,275        4,86199
           1544           1544        -34,609        4,87101
           1548           1548        -35,943        4,87926
           1552           1552        -37,277        4,88628
           1556           1556        -38,612        4,90076
           1560           1560        -39,946         4,9101
           1564           1564        -41,280        4,92506
           1568           1568        -42,614        4,94103
           1572           1572        -43,948        4,95742
           1576           1576        -45,282        4,98112
           1580           1580        -46,616        5,00237
           1584           1584        -47,950        5,02962
           1588           1588        -49,284        5,06179
           1592           1592        -50,618        5,09519
           1596           1596        -51,952        5,13819
           1600           1600        -53,286        5,17647
           1604           1604        -54,620        5,21748
           1608           1608        -55,954        5,26226
           1612           1612        -57,288         5,3092
           1616           1616        -58,622         5,3553
           1620           1620        -59,956        5,38101
           1624           1624        -61,290         5,4011
           1628           1628        -62,625        5,41367
           1632           1632        -63,959         5,3974
           1636           1636        -65,294        5,37362
           1640           1640        -66,628        5,33444
           1644           1644        -67,963        5,25648
           1648           1648        -69,298        5,15879
           1652           1652        -70,633        5,05607
           1656           1656        -71,968        4,95024
           1660           1660        -73,303        4,85124
           1664           1664        -74,637        4,76216
           1668           1668        -75,972        4,68291
           1672           1672        -77,307        4,60713
           1676           1676        -78,641        4,53513
           1680           1680        -79,974        4,82673
           1684           1684        -78,634        5,73821
           1688           1688        -77,298        6,12083
           1692           1692        -75,984        2,60013
           1696           1696        -74,669      -0,427482
           1700           1700        -73,348       -2,30836
           1704           1704        -72,022       -3,39586
           1708           1708        -70,694       -4,01914
           1712           1712        -69,363       -4,37351
           1716           1716        -68,032       -4,58127
           1720           1720        -66,701       -4,71863
           1724           1724        -65,369        -4,8306
           1728           1728        -64,037       -4,92966
           1732           1732        -62,706       -5,02064
           1736           1736        -61,374       -5,08651
           1740           1740        -60,042        -5,1324
           1744           1744        -58,710       -5,16244
           1748           1748        -57,377       -5,17279
           1752           1752        -56,045       -5,16147
           1756           1756        -54,712        -5,1451
           1760           1760        -53,380       -5,10132
           1764           1764        -52,047       -5,06696
           1768           1768        -50,714        -5,0179
           1772           1772        -49,381       -4,98195
           1776           1776        -48,049       -4,94453
           1780           1780        -46,716       -4,91028
           1784           1784        -45,384       -4,92292
           1788           1788        -44,051       -4,90225
           1792           1792        -42,719       -4,87617
           1796           1796        -41,386       -4,86314
           1800           1800        -40,054       -4,85635
           1804           1804        -38,721        -4,8649
           1808           1808        -37,389       -4,87459
           1812           1812        -36,057       -4,85842
           1816           1816        -34,724       -4,84585
           1820           1820        -33,392        -4,8273
           1824           1824        -32,059       -4,80892
           1828           1828        -30,727        -4,7968
           1832           1832        -29,394       -4,78577
           1836           1836        -28,062       -4,77318
           1840           1840        -26,729       -4,76066
           1844           1844        -25,397       -4,75462
           1848           1848        -24,064       -4,75306
           1852           1852        -22,732       -4,75601
           1856           1856        -21,400       -4,75979
           1860           1860        -20,068       -4,76601
           1864           1864        -18,735        -4,7678
           1868           1868        -17,403       -4,76871
           1872           1872        -16,071       -4,76877
           1876           1876        -14,738       -4,76259
           1880           1880        -13,406       -4,75116
           1884           1884        -12,074       -4,73728
           1888           1888        -10,741       -4,71567
           1892           1892         -9,408       -4,69301
           1896           1896         -8,076       -4,66652
           1900           1900         -6,743       -4,64268
           1904           1904         -5,410       -4,62205
           1908           1908         -4,078       -4,60392
           1912           1912         -2,745       -4,59007
           1916           1916         -1,413       -4,57812
           1920           1920    -80,190e-03       -4,56923
           1924           1924          1,252       -4,56187
           1928           1928          2,585       -4,55575
           1932           1932          3,917       -4,55077
           1936           1936          5,249       -4,54686
           1940           1940          6,582       -4,54167
           1944           1944          7,914       -4,53573
           1948           1948          9,247       -4,53183
           1952           1952         10,579       -4,52943
           1956           1956         11,911         -4,529
           1960           1960         13,244       -4,52893
           1964           1964         14,576       -4,52873
           1968           1968         15,908       -4,53027
           1972           1972         17,240       -4,53303
           1976           1976         18,573       -4,53542
           1980           1980         19,905        -4,5389
           1984           1984         21,237       -4,54483
           1988           1988         22,569       -4,55245
           1992           1992         23,901       -4,56161
           1996           1996         25,233       -4,57454
           2000           2000         26,565       -4,58888
           2004           2004         27,897       -4,60811
           2008           2008         29,229       -4,62942
           2012           2012         30,561       -4,65518
           2016           2016         31,892       -4,68807
           2020           2020         33,224       -4,72503
           2024           2024         34,555       -4,77246
           2028           2028         35,886       -4,83124
           2032           2032         37,216       -4,89483
           2036           2036         38,547       -4,97315
           2040           2040         39,877       -5,06468
           2044           2044         41,207       -5,16502
           2048           2048         42,536       -5,27366
           2052           2052         43,865       -5,38127
           2056           2056         45,195        -5,4854
           2060           2060         46,525       -5,57163
           2064           2064         47,855       -5,63277
           2068           2068         49,187        -5,6648
           2072           2072         50,519       -5,66913
           2076           2076         51,851       -5,65392
           2080           2080         53,184       -5,63534
           2084           2084         54,516       -5,61945
           2088           2088         55,848        -5,6092
           2092           2092         57,181       -5,60297
           2096           2096         58,513        -5,6007
           2100           2100         59,845       -5,59872
           2104           2104         61,177       -5,59669
           2108           2108         62,509       -5,59701
           2112           2112         63,841       -5,59914
           2116           2116         65,173       -5,60132
           2120           2120         66,505       -5,60341
           2124           2124         67,837       -5,60547
           2128           2128         69,169       -5,60735
           2132           2132         70,501       -5,60913
           2136           2136         71,833       -5,61147
           2140           2140         73,165       -5,61321
           2144           2144         74,497        -5,6141
           2148           2148         75,829       -5,61384
           2152           2152         77,161       -5,61419
           2156           2156         78,493       -5,61506
           2160           2160         79,825       -5,61575
           2164           2164         81,157        -5,6157
           2168           2168         82,489       -5,61474
           2172           2172         83,821       -5,61347
           2176           2176         85,153       -5,61153
           2180           2180         86,485       -5,60952
           2184           2184         87,818       -5,60762
           2188           2188         89,150       -5,60502
           2192           2192         90,482       -5,60178
           2196           2196         91,814       -5,59949
           2200           2200         93,146        -5,5972
           2204           2204         94,478       -5,59482
           2208           2208         95,811       -5,59222
           2212           2212         97,143       -5,58925
           2216           2216         98,475        -5,5862
           2220           2220         99,807       -5,58391
           2224           2224        101,139       -5,57977
           2228           2228        102,472       -5,57435
           2232           2232        103,804       -5,56758
           2236           2236        105,136       -5,55951
           2240           2240        106,469        -5,5507
           2244           2244        107,801       -5,54257
           2248           2248        109,134       -5,53466
           2252           2252        110,466       -5,52654
           2256           2256        111,799       -5,51799
           2260           2260        113,131       -5,50966
           2264           2264        114,463       -5,50307
           2268           2268        115,796       -5,49739
           2272           2272        117,128       -5,49263
           2276           2276        118,460       -5,48895
           2280           2280        119,793       -5,48647
           2284           2284        121,125       -5,48495
           2288           2288        122,457       -5,48435
           2292           2292        123,789       -5,48442
           2296           2296        125,121       -5,48586
           2300           2300        126,453       -5,49231
           2304           2304        127,785        -5,5007
           2308           2308        129,117        -5,5096
           2312           2312        130,449       -5,51826
           2316           2316        131,781       -5,52697
           2320           2320        133,113       -5,53672
           2324           2324        134,444       -5,54847
           2328           2328        135,776       -5,56328
           2332           2332        137,107        -5,5807
           2336           2336        138,439       -5,60092
           2340           2340        139,770       -5,63256
           2344           2344        141,100       -5,68766
           2348           2348        142,429       -5,76623
           2352           2352        143,758       -5,83986
           2356           2356        145,088       -5,87523
           2360           2360        146,421       -5,86843
           2364           2364        147,755       -5,81706
           2368           2368        149,091       -5,73429
           2372           2372        150,426       -5,66869
           2376           2376        151,759       -5,63552
           2380           2380        153,092       -5,62335
           2384           2384        154,425        -5,6181
           2388           2388        155,757       -5,61664
           2392           2392        157,089       -5,61654
           2396           2396        158,421       -5,61801
           2400           2400        159,753       -5,61775
           2404           2404        161,086       -5,61662
           2408           2408        162,418       -5,61706
           2412           2412        163,750       -5,61851
           2416           2416        165,082       -5,62097
           2420           2420        166,414       -5,62274
           2424           2424        167,747       -5,62442
           2428           2428        169,079       -5,62558
           2432           2432        170,411       -5,62681
           2436           2436        171,743        -5,6282
           2440           2440        173,075       -5,62996
           2444           2444        174,408       -5,63256
           2448           2448        175,740       -5,63518
           2452           2452        177,072       -5,63775
           2456           2456        178,404       -5,64028
           2460           2460        179,736       -5,64136
           2464           2464        181,068       -5,64407
           2468           2468        182,400       -5,64767
           2472           2472        183,733       -5,65004
           2476           2476        185,065       -5,65205
           2480           2480        186,397       -5,65505
           2484           2484        187,729       -5,65862
           2488           2488        189,061       -5,66192
           2492           2492        190,393       -5,66495
           2496           2496        191,726       -5,66789
           2500           2500        193,058       -5,67094
           2504           2504        194,390       -5,67379
           2508           2508        195,722       -5,67618
           2512           2512        197,054       -5,67826
           2516           2516        198,386       -5,68079
           2520           2520        199,719       -5,68306

Results:
  Step	-59,15e-03 Wg^-1
  	-0,47 mW
  Onset	35,87 °C
  Inflect. Pt.	46,53 °C
  Midpoint	41,52 °C
  Angle Midpoint	44,42 °C

  Step	-0,12 Wg^-1
  	-0,97 mW
  Onset	42,81 °C
  Inflect. Pt.	34,12 °C
  Midpoint	33,30 °C
  Angle Midpoint	34,82 °C

  Step	-0,12 Wg^-1
  	-1,00 mW
  Onset	34,51 °C
  Inflect. Pt.	42,87 °C
  Midpoint	40,00 °C
  Angle Midpoint	40,90 °C

  Integral	-183,90 mJ
    normalized	-22,99 Jg^-1
  Onset	132,74 °C
  Peak	144,57 °C

  Integral	-7,87 mJ
    normalized	-0,98 Jg^-1
  Onset	138,79 °C
  Peak	145,42 °C

Sample:
  Grazia_DSC_GR018, 8,0000 mg

________________________________________________________________________________
Not signed                                                        STARe SW 16.40