File: DSC/Ruben_PLA_2003D (METTLER).txt
Ruben_PLA_2003D                                                 09.09.2021 16:00
________________________________________________________________________________

Curve Name:
  Ruben_PLA_2003D, 09.09.2021 15:21:59
  Performed 09.09.2021 15:21:59
Curve Values:
          Index              t             Ts          Value
                           [s]           [°C]           [mW]
              0              0       -99,9929        2,57761
              8              8        -97,303        9,95812
             16             16       -94,6611        1,66737
             24             24       -92,0072        -1,9949
             32             32       -89,3468       -3,46017
             40             40       -86,6833       -3,96518
             48             48       -84,0184       -4,09849
             56             56        -81,353       -4,09306
             64             64       -78,6873       -4,04032
             72             72       -76,0215       -3,97163
             80             80       -73,3557       -3,90852
             88             88         -70,69       -3,85198
             96             96       -68,0242       -3,79725
            104            104       -65,3585       -3,75002
            112            112       -62,6927       -3,70431
            120            120       -60,0269       -3,65811
            128            128       -57,3612       -3,61626
            136            136       -54,6955       -3,57892
            144            144       -52,0299       -3,56477
            152            152       -49,3643       -3,54128
            160            160       -46,6986       -3,51364
            168            168       -44,0331       -3,50058
            176            176       -41,3675       -3,48308
            184            184        -38,702       -3,47235
            192            192       -36,0365       -3,46112
            200            200        -33,371        -3,4481
            208            208       -30,7056       -3,44238
            216            216       -28,0401       -3,43313
            224            224       -25,3747       -3,43172
            232            232       -22,7093       -3,42539
            240            240        -20,044       -3,42707
            248            248       -17,3786       -3,42218
            256            256       -14,7133       -3,42203
            264            264       -12,0481       -3,42307
            272            272       -9,38286       -3,42608
            280            280       -6,71763       -3,42909
            288            288       -4,05248       -3,43609
            296            296       -1,38742        -3,4491
            304            304        1,27766       -3,46011
            312            312        3,94268       -3,47449
            320            320        6,60764        -3,4911
            328            328        9,27259       -3,50775
            336            336        11,9375       -3,52562
            344            344        14,6023       -3,54742
            352            352        17,2672       -3,56821
            360            360         19,932       -3,58608
            368            368        22,5969       -3,60533
            376            376        25,2616       -3,62763
            384            384        27,9264        -3,6491
            392            392        30,5911       -3,67098
            400            400        33,2557        -3,6971
            408            408        35,9203       -3,72235
            416            416        38,5849       -3,74997
            424            424        41,2493       -3,78135
            432            432        43,9137       -3,81195
            440            440        46,5782       -3,84117
            448            448        49,2426       -3,86936
            456            456         51,907        -3,8972
            464            464        54,5714       -3,92502
            472            472        57,2358       -3,95246
            480            480           59,9       -3,98786
            488            488        62,5639       -4,02858
            496            496        65,2266       -4,11711
            504            504        67,8833       -4,42663
            512            512        70,5202       -5,47156
            520            520        73,1589       -6,41596
            528            528        75,8335       -6,03271
            536            536        78,5098       -5,59676
            544            544        81,1798       -5,39956
            552            552        83,8462       -5,33347
            560            560        86,5109       -5,32513
            568            568        89,1749       -5,34243
            576            576        91,8385       -5,37199
            584            584         94,502       -5,40575
            592            592        97,1653       -5,44429
            600            600        99,8286       -5,48266
            608            608        102,492       -5,51826
            616            616        105,155       -5,55506
            624            624        107,818       -5,59778
            632            632        110,481       -5,65125
            640            640        113,144       -5,70035
            648            648        115,807       -5,74421
            656            656         118,47       -5,79225
            664            664        121,132       -5,84228
            672            672        123,795       -5,89253
            680            680        126,457       -5,95453
            688            688        129,117       -6,09363
            696            696        131,758       -6,73936
            704            704        134,394       -7,52926
            712            712        137,047       -7,82672
            720            720        139,705       -7,97406
            728            728         142,36       -8,19224
            736            736         145,01       -8,55505
            744            744         147,65       -9,17531
            752            752        150,274       -10,2193
            760            760        152,874       -11,8412
            768            768        155,454       -13,9392
            776            776        158,076       -14,9295
            784            784        160,832       -12,5586
            792            792        163,626       -9,29315
            800            800        166,361        -7,5382
            808            808        169,059       -6,70896
            816            816        171,739       -6,32226
            824            824        174,411       -6,13782
            832            832        177,079       -6,05199
            840            840        179,746       -6,00527
            848            848        182,412       -5,97691
            856            856        185,077       -5,95748
            864            864        187,743         -5,942
            872            872        190,408       -5,92183
            880            880        193,074        -5,8978
            888            888         195,74       -5,87181
            896            896        198,406       -5,84631
            904            904        201,072       -5,82043
            912            912        203,737       -5,79706
            920            920        206,403       -5,77713
            928            928        209,069       -5,75711
            936            936        211,735       -5,73953
            944            944          214,4       -5,72469
            952            952        217,066       -5,71011
            960            960        219,731       -5,69569
            968            968        222,397       -5,68053
            976            976        225,062       -5,66535
            984            984        227,728       -5,64882
            992            992        230,394       -5,63087
           1000           1000         233,06       -5,61217
           1008           1008        235,726       -5,59488
           1016           1016        238,391       -5,58117
           1024           1024        241,057       -5,56708
           1032           1032        243,723       -5,55383
           1040           1040        246,388       -5,54374
           1048           1048        249,012       -6,36095
           1056           1056        247,637       -7,21025
           1064           1064        245,407        1,47611
           1072           1072         242,94        5,50233
           1080           1080         240,35        7,08081
           1088           1088        237,711        7,67027
           1096           1096        235,052        7,87599
           1104           1104        232,385        7,93314
           1112           1112        229,716        7,93064
           1120           1120        227,046        7,90378
           1128           1128        224,375        7,86959
           1136           1136        221,704        7,83085
           1144           1144        219,033        7,78393
           1152           1152        216,361        7,73472
           1160           1160         213,69        7,69044
           1168           1168        211,019         7,6516
           1176           1176        208,349        7,61542
           1184           1184        205,678        7,57964
           1192           1192        203,007        7,54323
           1200           1200        200,336        7,50507
           1208           1208        197,665        7,46175
           1216           1216        194,994        7,41248
           1224           1224        192,323        7,36906
           1232           1232        189,652        7,33679
           1240           1240        186,982          7,316
           1248           1248        184,313        7,30572
           1256           1256        181,644         7,3006
           1264           1264        178,974         7,2978
           1272           1272        176,305        7,29408
           1280           1280        173,636        7,29394
           1288           1288        170,967        7,29341
           1296           1296        168,297        7,28636
           1304           1304        165,627        7,27523
           1312           1312        162,958         7,2622
           1320           1320        160,287        7,23727
           1328           1328        157,617        7,20026
           1336           1336        154,946        7,16356
           1344           1344        152,276        7,13592
           1352           1352        149,606        7,11468
           1360           1360        146,936        7,10739
           1368           1368        144,267        7,10661
           1376           1376        141,596        7,05574
           1384           1384        138,924        6,97798
           1392           1392        136,253         6,9502
           1400           1400        133,585        6,97601
           1408           1408        130,917        7,02362
           1416           1416        128,249        7,06031
           1424           1424        125,581        7,07718
           1432           1432        122,911        7,07726
           1440           1440        120,242        7,06476
           1448           1448        117,572        7,04724
           1456           1456        114,902        7,02917
           1464           1464        112,232        7,01362
           1472           1472        109,562        7,00119
           1480           1480        106,892         6,9922
           1488           1488        104,223        6,98521
           1496           1496        101,553        6,97827
           1504           1504        98,8834        6,97551
           1512           1512         96,214        6,97768
           1520           1520        93,5443        6,97141
           1528           1528        90,8749        6,97336
           1536           1536        88,2055        6,97547
           1544           1544        85,5357        6,96521
           1552           1552        82,8659        6,95784
           1560           1560        80,1964        6,95778
           1568           1568        77,5269        6,95838
           1576           1576        74,8572        6,95451
           1584           1584        72,1877        6,95557
           1592           1592         69,518        6,95017
           1600           1600        66,8481        6,93895
           1608           1608        64,1783        6,93119
           1616           1616        61,5077        6,89399
           1624           1624         58,835        6,76797
           1632           1632        56,1575        6,43678
           1640           1640        53,4764        5,94645
           1648           1648        50,7962        5,47707
           1656           1656        48,1186        5,10138
           1664           1664        45,4436        4,82746
           1672           1672        42,7711        4,65637
           1680           1680        40,0999        4,53662
           1688           1688        37,4297        4,45968
           1696           1696          34,76         4,4048
           1704           1704        32,0898        4,31722
           1712           1712        29,4201        4,25574
           1720           1720         26,751        4,21982
           1728           1728        24,0817        4,17368
           1736           1736        21,4121        4,11336
           1744           1744        18,7425        4,04456
           1752           1752        16,0729        3,97702
           1760           1760        13,4037         3,9245
           1768           1768        10,7346        3,87614
           1776           1776        8,06516        3,80757
           1784           1784        5,39555        3,72456
           1792           1792        2,72598        3,63988
           1800           1800      0,0586666        3,69295
           1808           1808       -2,61005        3,65828
           1816           1816       -5,27856        3,63463
           1824           1824        -7,9463        3,66319
           1832           1832       -10,6117        3,85652
           1840           1840       -13,2799        3,86007
           1848           1848       -15,9485           3,83
           1856           1856       -18,6169        3,81435
           1864           1864       -21,2855        3,78485
           1872           1872       -23,9538        3,76716
           1880           1880       -26,6221         3,7503
           1888           1888       -29,2903        3,74258
           1896           1896       -31,9586        3,72242
           1904           1904       -34,6269        3,70876
           1912           1912        -37,295        3,70364
           1920           1920       -39,9631        3,69568
           1928           1928       -42,6312        3,68362
           1936           1936       -45,2992        3,67643
           1944           1944       -47,9672        3,67371
           1952           1952       -50,6353        3,66126
           1960           1960       -53,3031        3,67856
           1968           1968       -55,9709        3,69339
           1976           1976       -58,6388        3,70287
           1984           1984       -61,3064        3,73864
           1992           1992        -63,974        3,78318
           2000           2000       -66,6421        3,75217
           2008           2008       -69,3106         3,6669
           2016           2016        -71,979        3,56922
           2024           2024       -74,6472        3,48364
           2032           2032       -77,3155        3,39454
           2040           2040       -79,9835        3,32876
           2048           2048       -82,6515        3,26201
           2056           2056       -85,3194        3,20121
           2064           2064       -87,9873        3,14387
           2072           2072        -90,655        3,10195
           2080           2080       -93,3227        3,05796
           2088           2088       -95,9904        3,02412
           2096           2096        -98,658        2,99095
           2104           2104       -98,6579        3,00917
           2112           2112       -95,9905        2,97084
           2120           2120       -93,2985        10,0447
           2128           2128       -90,6433        6,22523
           2136           2136       -87,9992       0,195448
           2144           2144       -85,3433       -2,29087
           2152           2152       -82,6812       -3,12555
           2160           2160       -80,0166       -3,34614
           2168           2168       -77,3511       -3,38338
           2176           2176       -74,6853       -3,34372
           2184           2184       -72,0195       -3,31347
           2192           2192       -69,3537       -3,27097
           2200           2200       -66,6878       -3,23898
           2208           2208        -64,022       -3,20952
           2216           2216       -61,3562       -3,18281
           2224           2224       -58,6905       -3,16009
           2232           2232       -56,0247       -3,13714
           2240           2240       -53,3591       -3,13113
           2248           2248       -50,6934       -3,12681
           2256           2256       -48,0278       -3,11758
           2264           2264       -45,3622       -3,10829
           2272           2272       -42,6966       -3,10455
           2280           2280        -40,031       -3,10528
           2288           2288       -37,3655        -3,1051
           2296           2296          -34,7       -3,10429
           2304           2304       -32,0346       -3,11085
           2312           2312       -29,3691       -3,11263
           2320           2320       -26,7036        -3,1147
           2328           2328       -24,0381       -3,10711
           2336           2336       -21,3726       -3,10339
           2344           2344       -18,7072       -3,10434
           2352           2352       -16,0416       -3,09683
           2360           2360       -13,3761       -3,08808
           2368           2368       -10,7106       -3,08213
           2376           2376       -8,04506       -3,07368
           2384           2384       -5,37956       -3,06786
           2392           2392       -2,71413       -3,06701
           2400           2400      -0,048731       -3,06762
           2408           2408        2,61666       -3,06867
           2416           2416        5,28201       -3,07266
           2424           2424        7,94732       -3,07859
           2432           2432        10,6126       -3,08521
           2440           2440        13,2779       -3,08998
           2448           2448        15,9432       -3,09532
           2456           2456        18,6085       -3,10438
           2464           2464        21,2737       -3,11352
           2472           2472         23,939       -3,11978
           2480           2480        26,6042       -3,12949
           2488           2488        29,2693       -3,14063
           2496           2496        31,9344       -3,15336
           2504           2504        34,5996       -3,16578
           2512           2512        37,2646       -3,18057
           2520           2520        39,9295       -3,20091
           2528           2528        42,5943       -3,22578
           2536           2536         45,259       -3,25664
           2544           2544        47,9234        -3,2969
           2552           2552        50,5873       -3,35429
           2560           2560        53,2506       -3,44019
           2568           2568        55,9124       -3,58065
           2576           2576        58,5711       -3,84151
           2584           2584         61,224        -4,3236
           2592           2592        63,8629       -5,33114
           2600           2600        66,5091       -6,02523
           2608           2608        69,1752       -5,95117
           2616           2616        71,8425       -5,83606
           2624           2624        74,5081       -5,78823
           2632           2632        77,1728       -5,77128
           2640           2640        79,8371       -5,77141
           2648           2648        82,5013        -5,7724
           2656           2656        85,1656       -5,77339
           2664           2664        87,8301       -5,76896
           2672           2672        90,4947        -5,7592
           2680           2680        93,1594        -5,7478
           2688           2688        95,8241       -5,73447
           2696           2696        98,4889       -5,72333
           2704           2704        101,154       -5,71039
           2712           2712        103,818        -5,6989
           2720           2720        106,483       -5,68192
           2728           2728        109,148       -5,66268
           2736           2736        111,814       -5,64351
           2744           2744        114,479       -5,62671
           2752           2752        117,144       -5,61412
           2760           2760        119,808       -5,60218
           2768           2768        122,473        -5,5915
           2776           2776        125,138       -5,58307
           2784           2784        127,803       -5,57485
           2792           2792        130,468       -5,56698
           2800           2800        133,133       -5,55672
           2808           2808        135,798       -5,55011
           2816           2816        138,462       -5,54819
           2824           2824        141,127       -5,54652
           2832           2832        143,792       -5,54807
           2840           2840        146,456        -5,5535
           2848           2848         149,12       -5,57681
           2856           2856        151,783       -5,62578
           2864           2864        154,447       -5,62592
           2872           2872        157,114       -5,56795
           2880           2880        159,781       -5,50869
           2888           2888        162,447       -5,48009
           2896           2896        165,112       -5,46575
           2904           2904        167,778       -5,45517
           2912           2912        170,443       -5,44571
           2920           2920        173,108       -5,43844
           2928           2928        175,773       -5,43563
           2936           2936        178,438       -5,43367
           2944           2944        181,103       -5,42944
           2952           2952        183,768       -5,42475
           2960           2960        186,433       -5,42288
           2968           2968        189,097       -5,42426
           2976           2976        191,762       -5,42574
           2984           2984        194,427       -5,42996
           2992           2992        197,092       -5,43114
           3000           3000        199,757       -5,43144
           3008           3008        202,422       -5,43077
           3016           3016        205,087       -5,42729
           3024           3024        207,752       -5,42324
           3032           3032        210,417       -5,42157
           3040           3040        213,082       -5,40956
           3048           3048        215,748       -5,40326
           3056           3056        218,413        -5,3932
           3064           3064        221,078       -5,38539
           3072           3072        223,744       -5,37916
           3080           3080        226,409       -5,36536
           3088           3088        229,075       -5,35922
           3096           3096         231,74       -5,34885
           3104           3104        234,406        -5,3368
           3112           3112        237,071       -5,32897
           3120           3120        239,737       -5,32197
           3128           3128        242,402       -5,31671
           3136           3136        245,068       -5,30826
           3144           3144        247,733       -5,30243

Results:
  Step	-99,49e-03 Wg^-1
   	-1,14 mW
  Onset	67,77 °C
  Inflect. Pt.	70,52 °C
  Midpoint	68,59 °C

  Integral	-448,95 mJ
    normalized	-39,04 Jg^-1
  Onset	145,56 °C
  Peak	157,74 °C

  Step	-0,22 Wg^-1
   	-2,49 mW
  Onset	59,24 °C
  Inflect. Pt.	63,53 °C
  Midpoint	61,78 °C

  Integral	-3,58 mJ
    normalized	-0,31 Jg^-1
  Onset	146,50 °C
  Peak	153,45 °C

Sample:
  Ruben_PLA_2003D, 11,5000 mg

________________________________________________________________________________
Not signed                                                         STARe SW 9.30